magic,version,size,sequence,dropped_records,timestamp_us,tick_ms,imu_sequence,raw_temperature,raw_accel_x,raw_accel_y,raw_accel_z,raw_gyro_x,raw_gyro_y,raw_gyro_z,temperature_c,accel_x_g,accel_y_g,accel_z_g,gyro_x_dps,gyro_y_dps,gyro_z_dps,roll_deg,pitch_deg,yaw_deg,rc_ch1_us,rc_ch2_us,rc_ch3_us,rc_ch4_us,rc_ch5_us,rc_ch6_us,rc_ch7_us,rc_ch8_us,throttle_us,servo_alpha_us,servo_beta_us,motor_upper_us,motor_lower_us,servo_alpha_feedback_us,servo_beta_feedback_us,servo_alpha_feedback_age_ms,servo_beta_feedback_age_ms,servo_alpha_feedback_sequence,servo_beta_feedback_sequence,servo_feedback_valid_mask,servo_alpha_feedback_deg,servo_alpha_feedback_tilt_deg,servo_beta_feedback_deg,servo_beta_feedback_tilt_deg,rc_armed,rc_link_ok,throttle_over_20,imu_valid,motor_output_reason,rc_link_seen,arm_switch_high,arm_throttle_low,arm_switch_seen_low,arm_switch_prev_high,imu_fault_latched,imu_fault_reason,motor_output_reason_name,acc_nav_m_s2_0,acc_nav_m_s2_1,acc_nav_m_s2_2,vel_est_m_s_0,vel_est_m_s_1,vel_est_m_s_2,vel_ref_m_s_0,vel_ref_m_s_1,vel_err_m_s_0,vel_err_m_s_1,vel_pid_out_m_s2_0,vel_pid_out_m_s2_1,vel_pid_p_m_s2_0,vel_pid_p_m_s2_1,vel_pid_i_m_s2_0,vel_pid_i_m_s2_1,vel_pid_d_m_s2_0,vel_pid_d_m_s2_1,vel_loop_active,ctrl_pos_p_m_s2_0,ctrl_pos_p_m_s2_1,ctrl_pos_p_m_s2_2,ctrl_vel_d_m_s2_0,ctrl_vel_d_m_s2_1,ctrl_vel_d_m_s2_2,ctrl_accel_out_m_s2_0,ctrl_accel_out_m_s2_1,ctrl_accel_out_m_s2_2,ctrl_force_cmd_n_0,ctrl_force_cmd_n_1,ctrl_force_cmd_n_2,ctrl_tilt_ff_rad_0,ctrl_tilt_ff_rad_1,ctrl_tilt_angle_p_rad_0,ctrl_tilt_angle_p_rad_1,ctrl_tilt_rate_d_rad_0,ctrl_tilt_rate_d_rad_1,ctrl_tilt_out_rad_0,ctrl_tilt_out_rad_1,ctrl_yaw_angle_p_rad_s,ctrl_yaw_rate_d_rad_s,ctrl_yaw_torque_cmd,ctrl_total_force_n,ctrl_motor_thrust_cmd_n_0,ctrl_motor_thrust_cmd_n_1,ctrl_motor_cmd_us_0,ctrl_motor_cmd_us_1,ctrl_velocity_integral_m_0,ctrl_velocity_integral_m_1,ctrl_desired_attitude_rpy_rad_0,ctrl_desired_attitude_rpy_rad_1,ctrl_desired_attitude_rpy_rad_2,ctrl_attitude_error_0,ctrl_attitude_error_1,ctrl_attitude_error_2,ctrl_rate_error_rad_s_0,ctrl_rate_error_rad_s_1,ctrl_rate_error_rad_s_2,ctrl_moment_cmd_n_m_0,ctrl_moment_cmd_n_m_1,ctrl_moment_cmd_n_m_2,ctrl_horizontal_command_scale,ctrl_moment_utilization,ctrl_thrust_utilization,ctrl_protection_flags,z_ref_m,record_crc32,sector_seq,sector_index
827477062,4,408,19875,10874,526375138,526376,519230,328,-2806,7292,8974,461,153,148,27.5625,-0.12345105409622192,0.07227920740842819,0.9692317843437195,-3.603597402572632,-15.191681861877441,-2.1979408264160156,2.8605639934539795,5.034284591674805,6.895287990570068,1529,1500,1480,1500,2000,1000,1000,1000,1503,1478,1411,1845,1772,1569,1446,342,330,21148,21340,0,,,,,1,1,1,1,1,1,1,0,1,1,0,0,stabilized_mix,-0.5920407772064209,-0.18210166692733765,0.6316562294960022,0.07243411242961884,-0.051290981471538544,0.05721535533666611,0.0,0.04639999940991402,-0.07243411242961884,0.09769098460674286,-0.3162924647331238,0.4588608741760254,-0.31687572598457336,0.42736634612083435,0.0005832715542055666,0.031494565308094025,0.0,0.0,1.0,-0.31687572598457336,0.42736634612083435,0.15443752706050873,0.0005832715542055666,0.031494565308094025,0.0,-0.3162924647331238,0.4588608741760254,0.15443752706050873,-1.5108230113983154,0.019174158573150635,13.134503364562988,-0.11452371627092361,-0.0014502672711387277,0.04188603162765503,0.0112591702491045,0.09744005650281906,0.022589050233364105,0.13949984312057495,0.03431440144777298,-0.2780919075012207,0.019180651754140854,-9.061896707862616e-05,13.221122741699219,7.063656330108643,6.157466888427734,1845.0,1772.0,-0.01066632941365242,-0.5759434103965759,-0.06705671548843384,-0.15156987309455872,-0.009214659221470356,0.020898982882499695,0.22824856638908386,0.1417866349220276,-0.06289464235305786,-0.26514485478401184,-0.03836130350828171,-0.038212426006793976,-0.1515854448080063,-9.06189379747957e-05,0.8749350309371948,0.4499690532684326,0.845072329044342,2,0.0,159066258,1980,961
827477062,4,408,19876,10874,526379172,526380,519234,344,296,9723,-5465,485,-247,223,27.6875,0.08331236988306046,0.048698194324970245,0.8874132633209229,-4.670583724975586,-17.895732879638672,-3.58008074760437,2.91129732131958,4.832198619842529,6.891538143157959,1529,1500,1480,1500,2000,1000,1000,1000,1503,1473,1399,1843,1773,1569,1446,346,334,21148,21340,0,,,,,1,1,1,1,1,1,1,0,1,1,0,0,stabilized_mix,-0.6506296992301941,-0.2224646657705307,0.721337080001831,0.06915763020515442,-0.05182580649852753,0.05981873720884323,0.0,0.04639999940991402,-0.06915763020515442,0.09822580218315125,-0.28436601161956787,0.4343298375606537,-0.2849152982234955,0.40467023849487305,0.0005492886994034052,0.029659613966941833,0.0,0.0,1.0,-0.2849152982234955,0.40467023849487305,0.15443752706050873,0.0005492886994034052,0.029659613966941833,0.0,-0.28436601161956787,0.4343298375606537,0.15443752706050873,-1.4254279136657715,-0.03139227628707886,13.141098976135254,-0.10804854333400726,0.002374927280470729,0.04350869357585907,0.01291538868099451,0.1149202287197113,0.029285825788974762,0.15858832001686096,0.04309643805027008,-0.27796101570129395,0.031242098659276962,-8.635164704173803e-05,13.218218803405762,7.040867328643799,6.177350997924805,1843.0,1773.0,-0.01066632941365242,-0.5759434103965759,-0.07008445262908936,-0.1643071472644806,-0.007968954741954803,0.023969341069459915,0.23695504665374756,0.14137306809425354,-0.0815170630812645,-0.3123394548892975,-0.062484197318553925,-0.04797692969441414,-0.17206880450248718,-8.635161793790758e-05,0.8239591121673584,0.5110583305358887,0.8448867201805115,2,0.0,247293371,1980,961
827477062,4,408,19877,10874,526383196,526384,519238,322,130,7270,-1782,640,-121,34,27.515625,-0.12829338014125824,0.08356605470180511,0.9471701979637146,-2.9994091987609863,-16.961402893066406,-1.739997148513794,2.932717800140381,4.63408088684082,6.877424716949463,1529,1500,1480,1500,2000,1000,1000,1000,1503,1482,1404,1845,1771,1569,1446,350,338,21148,21340,0,,,,,1,1,1,1,1,1,1,0,1,1,0,0,stabilized_mix,-0.8962037563323975,-0.2412768304347992,0.6567127108573914,0.06245242431759834,-0.05103573575615883,0.062459081411361694,0.0,0.04639999940991402,-0.06245242431759834,0.09743573516607285,-0.27691614627838135,0.4649478495121002,-0.27750861644744873,0.4329576790332794,0.0005924506695009768,0.03199020400643349,0.0,0.0,1.0,-0.27750861644744873,0.4329576790332794,0.160474494099617,0.0005924506695009768,0.03199020400643349,0.0,-0.27691614627838135,0.4649478495121002,0.160474494099617,-1.364449381828308,0.004009604454040527,13.140981674194336,-0.1034608781337738,-0.00030349058215506375,0.041672706604003906,0.009305743500590324,0.10889216512441635,0.018814019858837128,0.15083453059196472,0.028530817478895187,-0.27746835350990295,0.015184339135885239,-9.179941844195127e-05,13.211628913879395,7.064811706542969,6.146817684173584,1845.0,1771.0,-0.01066632941365242,-0.5759434103965759,-0.06380682438611984,-0.15704083442687988,-0.009164749644696712,0.01726122573018074,0.22695842385292053,0.14110669493675232,-0.05234956741333008,-0.2960323095321655,-0.030368678271770477,-0.03175191208720207,-0.16372409462928772,-9.179940389003605e-05,0.8887040615081787,0.4862624704837799,0.8444655537605286,2,0.0,2059086161,1980,961
827477062,4,408,19878,10874,526387212,526388,519242,320,34,9671,6024,403,-217,15,27.5,-0.08526469767093658,0.015536239370703697,0.9822564125061035,-2.224099636077881,-14.651679039001465,-7.118359088897705,2.9405901432037354,4.442438125610352,6.857187271118164,1529,1500,1480,1500,2000,1000,1000,1000,1503,1483,1416,1838,1778,1569,1446,354,342,21148,21340,0,,,,,1,1,1,1,1,1,1,0,1,1,0,0,stabilized_mix,-0.9375407695770264,-0.19465789198875427,0.6934725642204285,0.058237068355083466,-0.0516216903924942,0.0652254968881607,0.0,0.04639999940991402,-0.058237068355083466,0.09802168607711792,-0.28588929772377014,0.5177213549613953,-0.2865453064441681,0.4822985529899597,0.0006560225738212466,0.035422857850790024,0.0,0.0,1.0,-0.2865453064441681,0.4822985529899597,0.160474494099617,0.0006560225738212466,0.035422857850790024,0.0,-0.28588929772377014,0.5177213549613953,0.160474494099617,-1.3243387937545776,0.07487672567367554,13.148916244506836,-0.10037996619939804,-0.005665791220963001,0.03841061145067215,0.011254376731812954,0.09398380666971207,0.013946031220257282,0.13240757584571838,0.026646900922060013,-0.2767619490623474,0.06211940199136734,-7.512490265071392e-05,13.215653419494629,6.9834513664245605,6.232202529907227,1838.0,1778.0,-0.01066632941365242,-0.5759434103965759,-0.0683261826634407,-0.14246848225593567,-0.009431537240743637,0.02088109962642193,0.20927740633487701,0.1406651735305786,-0.038817860186100006,-0.2557200491428375,-0.12423880398273468,-0.02966497465968132,-0.14389923214912415,-7.512488809879869e-05,0.9840649962425232,0.4272300899028778,0.8447227478027344,2,0.0,82460036,1980,961
827477062,4,408,19879,10874,526391277,526392,519246,332,842,5319,-4744,508,-187,205,27.59375,-0.05141228437423706,0.07784698903560638,0.8659937977790833,-3.1334118843078613,-16.469593048095703,-3.99615216255188,2.9868102073669434,4.133498191833496,6.842396259307861,1529,1500,1480,1500,2000,1000,1000,1000,1503,1478,1408,1842,1774,1569,1446,358,346,21148,21340,0,,,,,1,1,1,1,1,1,1,0,1,1,0,0,stabilized_mix,-1.2142914533615112,-0.2643131613731384,0.7286391258239746,0.05058349668979645,-0.050634607672691345,0.06794770807027817,0.0,0.04639999940991402,-0.05058349668979645,0.09703460335731506,-0.24719545245170593,0.5107247233390808,-0.2478487342596054,0.47544965147972107,0.0006532853003591299,0.03527505695819855,0.0,0.0,1.0,-0.2478487342596054,0.47544965147972107,0.1643984466791153,0.0006532853003591299,0.03527505695819855,0.0,-0.24719545245170593,0.5107247233390808,0.1643984466791153,-1.2020964622497559,0.04813903570175171,13.153428077697754,-0.09113718569278717,-0.0036446047015488148,0.03851606696844101,0.013291692361235619,0.10576669126749039,0.01966010592877865,0.1444014012813568,0.033868588507175446,-0.2762456238269806,0.034873005002737045,-8.448038715869188e-05,13.208331108093262,7.026567459106445,6.181763648986816,1842.0,1774.0,-0.01066632941365242,-0.5759434103965759,-0.07226376980543137,-0.1485455483198166,-0.008494865149259567,0.024648714810609818,0.20969480276107788,0.13999535143375397,-0.05468835309147835,-0.28744861483573914,-0.06974601000547409,-0.03768002241849899,-0.156725212931633,-8.448040898656473e-05,0.9799589514732361,0.46566951274871826,0.844254732131958,2,0.0,3456924969,1980,961
827477062,4,408,19892,10886,526443670,526444,519298,324,2170,11487,-745,127,-516,-15,27.53125,0.050001360476017,-0.00913960114121437,0.9477248191833496,0.24100248515605927,-8.201173782348633,-10.568904876708984,3.1689765453338623,1.759942889213562,6.539498805999756,1529,1500,1480,1500,2000,1000,1000,1000,1503,1501,1459,1831,1783,1569,1446,410,398,21148,21340,0,,,,,1,1,1,1,1,1,1,0,1,1,0,0,stabilized_mix,-1.2304856777191162,-0.32300126552581787,0.6504221558570862,-0.025572163984179497,-0.04987124726176262,0.10219665616750717,0.0,0.04639999940991402,0.025572163984179497,0.09627124667167664,0.12849676609039307,0.5176665186882019,0.12786081433296204,0.4813562333583832,0.0006359493127092719,0.03631026670336723,0.0,0.0,1.0,0.12786081433296204,0.4813562333583832,0.17160525918006897,0.0006359493127092719,0.03631026670336723,0.0,0.12849676609039307,0.5176665186882019,0.17160525918006897,-0.149666428565979,-0.04645663499832153,13.194913864135742,-0.011342249810695648,0.003520557889714837,0.012054922059178352,-0.0017269253730773926,0.05261429399251938,-0.0015136064030230045,0.06472554057836533,-0.002038514707237482,-0.2656725347042084,0.09223109483718872,-6.0704536736011505e-05,13.195844650268555,6.901444911956787,6.294399738311768,1831.0,1783.0,-0.01017518900334835,-0.5809642672538757,-0.0513312891125679,-0.042322129011154175,-0.016558947041630745,-0.0031998269259929657,0.06561867892742157,0.13392120599746704,0.004206286743283272,-0.14313748478889465,-0.18446218967437744,0.002265075920149684,-0.07041803747415543,-6.0704500356223434e-05,1.0,0.20930780470371246,0.8434566259384155,0,0.0,2496094995,1980,961
827477062,4,408,19893,10886,526447708,526448,519302,328,-613,4660,-2175,407,-197,6,27.5625,-0.13505733013153076,0.1331777721643448,0.8851494789123535,1.2506235837936401,-9.963435173034668,-6.09277868270874,3.2112700939178467,1.551705002784729,6.508509635925293,1529,1500,1480,1500,2000,1000,1000,1000,1503,1508,1451,1837,1777,1569,1446,414,402,21148,21340,0,,,,,1,1,1,1,1,1,1,0,1,1,0,0,stabilized_mix,-1.3591513633728027,-0.37849414348602295,0.5915747880935669,-0.03082721307873726,-0.0508294552564621,0.10441695898771286,0.0,0.04639999940991402,0.03082721307873726,0.09722945094108582,0.1547793745994568,0.5224817395210266,0.154136061668396,0.4861472547054291,0.0006433152593672276,0.036334503442049026,0.0,0.0,1.0,0.154136061668396,0.4861472547054291,0.17160525918006897,0.0006433152593672276,0.036334503442049026,0.0,0.1547793745994568,0.5224817395210266,0.17160525918006897,-0.06571328639984131,-0.053675711154937744,13.196454048156738,-0.004979575984179974,0.004067361354827881,0.012833896093070507,-0.005063330754637718,0.06393218785524368,-0.007853255607187748,0.07690870016813278,-0.012074096128344536,-0.2645907998085022,0.05316952243447304,-7.399742025882006e-05,13.19672679901123,6.968350887298584,6.228376388549805,1837.0,1777.0,-0.010293044149875641,-0.5813520550727844,-0.045127201825380325,-0.04984048008918762,-0.01659165881574154,-0.009381517767906189,0.06986409425735474,0.13341674208641052,0.021827498450875282,-0.1738947480916977,-0.10633904486894608,0.013423300348222256,-0.08364827930927277,-7.399744936265051e-05,1.0,0.24863381683826447,0.843513011932373,0,0.0,2214513996,1980,961
827477062,4,408,19894,10886,526451741,526452,519306,328,-2965,9810,8353,139,-121,-44,27.5625,-0.17853137850761414,0.057381194084882736,1.0301063060760498,0.5261824727058411,-5.378448009490967,-8.797475814819336,3.1837427616119385,1.4781090021133423,6.466726779937744,1529,1500,1480,1500,2000,1000,1000,1000,1503,1504,1474,1833,1781,1569,1446,418,406,21148,21340,0,,,,,1,1,1,1,1,1,1,0,1,1,0,0,stabilized_mix,-1.1839611530303955,-0.255977600812912,0.5692299604415894,-0.0348205529153347,-0.05012291669845581,0.10682035982608795,0.0,0.04639999940991402,0.0348205529153347,0.09652291238307953,0.17475458979606628,0.5189733505249023,0.1741027683019638,0.48261457681655884,0.0006518277805298567,0.0363587848842144,0.0,0.0,1.0,0.1741027683019638,0.48261457681655884,0.17695343494415283,0.0006518277805298567,0.0363587848842144,0.0,0.17475458979606628,0.5189733505249023,0.17695343494415283,-0.02251318097114563,-0.05458801984786987,13.189501762390137,-0.0017068999586626887,0.004138717893511057,0.006695580668747425,-0.0036923366133123636,0.03451333940029144,-0.0033064449671655893,0.04127722978591919,-0.006340848281979561,-0.2631323039531708,0.07677245885133743,-6.522599142044783e-05,13.189634323120117,6.920947074890137,6.268686771392822,1833.0,1781.0,-0.010429244488477707,-0.5817405581474304,-0.04922562837600708,-0.017718400806188583,-0.01791210286319256,-0.006837714463472366,0.03642918914556503,0.1324622631072998,0.009183616377413273,-0.09387162327766418,-0.15354491770267487,0.007046030834317207,-0.04490590840578079,-6.522594776470214e-05,1.0,0.13354180753231049,0.8430596590042114,0,0.0,1053719449,1980,961
827477062,4,408,19895,10886,526455774,526456,519310,340,3959,8903,-3168,118,-570,22,27.65625,0.037109918892383575,-0.012301541864871979,0.8863117694854736,0.11809161305427551,-7.055936813354492,-9.914161682128906,3.2144906520843506,1.3109949827194214,6.440496921539307,1529,1500,1480,1500,2000,1000,1000,1000,1503,1501,1466,1831,1782,1569,1446,422,410,21148,21340,0,,,,,1,1,1,1,1,1,1,0,1,1,0,0,stabilized_mix,-1.2084261178970337,-0.2857244312763214,0.6579689979553223,-0.03993525356054306,-0.051000457257032394,0.10914136469364166,0.0,0.04639999940991402,0.03993525356054306,0.09740045666694641,0.20033776760101318,0.5233853459358215,0.1996762752532959,0.48700228333473206,0.0006614997400902212,0.03638307750225067,0.0,0.0,1.0,0.1996762752532959,0.48700228333473206,0.17695343494415283,0.0006614997400902212,0.03638307750225067,0.0,0.20033776760101318,0.5233853459358215,0.17695343494415283,0.05101442337036133,-0.05949985980987549,13.190407752990723,0.0038675202522426844,0.004510778933763504,0.007409839890897274,-0.0018084179610013962,0.045279957354068756,-0.0007418228778988123,0.052712567150592804,-0.0015783212147653103,-0.262216717004776,0.08651737868785858,-6.149476394057274e-05,13.190640449523926,6.902794361114502,6.287846565246582,1831.0,1782.0,-0.010583995841443539,-0.5821292400360107,-0.052616018801927567,-0.024754824116826057,-0.017437584698200226,-0.003349507227540016,0.040314383804798126,0.13182906806468964,0.002061087405309081,-0.1231493279337883,-0.17303475737571716,0.0017548328032717109,-0.057340674102306366,-6.149476394057274e-05,1.0,0.17050425708293915,0.8431239724159241,0,0.0,3243302179,1980,961
827477062,4,408,19896,10886,526459805,526460,519314,304,-2658,4671,1018,385,-64,-68,27.375,-0.21205486357212067,0.15922053158283234,0.9250615835189819,1.7724556922912598,-8.14040756225586,-3.814934253692627,3.2415311336517334,1.1092932224273682,6.413113594055176,1529,1500,1480,1500,2000,1000,1000,1000,1503,1512,1462,1839,1775,1569,1446,426,414,21148,21340,0,,,,,1,1,1,1,1,1,1,0,1,1,0,0,stabilized_mix,-1.3608354330062866,-0.3196594715118408,0.5520020723342896,-0.044012293219566345,-0.050038788467645645,0.11133471876382828,0.0,0.04639999940991402,0.044012293219566345,0.09643878787755966,0.22073376178741455,0.5186012983322144,0.22006146609783173,0.4821939468383789,0.0006722908583469689,0.03640734404325485,0.0,0.0,1.0,0.22006146609783173,0.4821939468383789,0.17695343494415283,0.0006722908583469689,0.03640734404325485,0.0,0.22073376178741455,0.5186012983322144,0.17695343494415283,0.12403392791748047,-0.07516902685165405,13.190098762512207,0.009403285570442677,0.005698584485799074,0.007620762102305889,-0.008157654665410519,0.05225237458944321,-0.011134535074234009,0.05998219549655914,-0.018864354118704796,-0.26126083731651306,0.03329158201813698,-7.978919893503189e-05,13.190895080566406,6.994393348693848,6.1965012550354,1839.0,1775.0,-0.010756653733551502,-0.5825175046920776,-0.04078605771064758,-0.028675252571702003,-0.017824456095695496,-0.015110896900296211,0.04146347939968109,0.13152165710926056,0.03093518689274788,-0.14207690954208374,-0.06658316403627396,0.020961469039320946,-0.06522779166698456,-7.978923531481996e-05,1.0,0.19398736953735352,0.8431402444839478,0,0.0,3222039397,1981,962
827477062,4,408,19897,10886,526463839,526464,519318,328,-2477,11356,6464,32,-177,-24,27.5625,-0.15807229280471802,0.05296243727207184,1.0297307968139648,0.435835599899292,-3.3094987869262695,-8.804071426391602,3.244450807571411,0.9996483325958252,6.3780412673950195,1529,1500,1480,1500,2000,1000,1000,1000,1503,1504,1486,1832,1781,1569,1446,430,418,21148,21340,0,,,,,1,1,1,1,1,1,1,0,1,1,0,0,stabilized_mix,-1.2596169710159302,-0.2692052125930786,0.5665009021759033,-0.04903071001172066,-0.05089021101593971,0.11365717649459839,0.0,0.04639999940991402,0.04903071001172066,0.09729021042585373,0.24583779275417328,0.5228826999664307,0.245153546333313,0.48645105957984924,0.0006842422299087048,0.03643162176012993,0.0,0.0,1.0,0.245153546333313,0.48645105957984924,0.18175983428955078,0.0006842422299087048,0.03643162176012993,0.0,0.24583779275417328,0.5228826999664307,0.18175983428955078,0.18369652330875397,-0.07325601577758789,13.184000015258789,0.01393239013850689,0.005555836949497461,0.0008592682424932718,-0.004440151154994965,0.0212396252900362,-0.0027383931446820498,0.022155221551656723,-0.006774676963686943,-0.2600365877151489,0.07683001458644867,-6.412225775420666e-05,13.1854829788208,6.9133524894714355,6.272130012512207,1832.0,1781.0,-0.010947875678539276,-0.5829059481620789,-0.04988950490951538,0.005780648905783892,-0.0191075187176466,-0.008218318223953247,0.004677542485296726,0.13047783076763153,0.007606766186654568,-0.057761650532484055,-0.15366002917289734,0.007524145767092705,-0.02409937046468258,-6.412230140995234e-05,1.0,0.07168979942798615,0.8427942991256714,0,0.0,471478607,1981,962
827477062,4,408,19898,10886,526467872,526468,519322,330,2292,5978,-4621,56,-413,43,27.578125,-0.047215141355991364,0.06932587921619415,0.853834867477417,0.38453060388565063,-5.558701515197754,-6.967825889587402,3.3112497329711914,0.7828340530395508,6.357297897338867,1529,1500,1480,1500,2000,1000,1000,1000,1503,1504,1476,1835,1779,1569,1446,434,422,21148,21340,0,,,,,1,1,1,1,1,1,1,0,1,1,0,0,stabilized_mix,-1.4012516736984253,-0.37985149025917053,0.6176674962043762,-0.05455842614173889,-0.051931921392679214,0.11579872667789459,0.0,0.04639999940991402,0.05455842614173889,0.09833192080259323,0.27348965406417847,0.5281157493591309,0.27279213070869446,0.49165961146354675,0.0006975314463488758,0.03645613044500351,0.0,0.0,1.0,0.27279213070869446,0.49165961146354675,0.18175983428955078,0.0006975314463488758,0.03645613044500351,0.0,0.27348965406417847,0.5281157493591309,0.18175983428955078,0.27163320779800415,-0.08554267883300781,13.183815002441406,0.02060062065720558,0.006486994214355946,0.0020409116987138987,-0.004147736355662346,0.035675808787345886,-0.002417216310277581,0.03775627166032791,-0.006026862189173698,-0.2593125104904175,0.060805752873420715,-6.947736255824566e-05,13.186890602111816,6.940831661224365,6.246057987213135,1835.0,1779.0,-0.011160503141582012,-0.5832980871200562,-0.05067175254225731,-0.004540091846138239,-0.018597334623336792,-0.007679237052798271,0.011096631176769733,0.12997595965862274,0.006711325142532587,-0.09701764583587646,-0.12161150574684143,0.006694480311125517,-0.04106772691011429,-6.947736255824566e-05,1.0,0.12215293943881989,0.8428843021392822,0,0.0,4069453521,1981,962
827477062,4,408,19899,10886,526471906,526472,519326,348,-4100,5124,4478,243,11,-83,27.71875,-0.32418274879455566,0.1677129566669464,0.9546998143196106,1.6716461181640625,-4.62516450881958,-3.4258201122283936,3.3311798572540283,0.5757042169570923,6.331642150878906,1529,1500,1480,1500,2000,1000,1000,1000,1503,1512,1481,1839,1774,1569,1446,438,426,21148,21340,0,,,,,1,1,1,1,1,1,1,0,1,1,0,0,stabilized_mix,-1.5636264085769653,-0.3754469156265259,0.5242499113082886,-0.05920586735010147,-0.0514526404440403,0.11794903129339218,0.0,0.04639999940991402,0.05920586735010147,0.09785263985395432,0.29674139618873596,0.5257439017295837,0.29602932929992676,0.4892632067203522,0.0007120812661014497,0.03648070991039276,0.0,0.0,1.0,0.29602932929992676,0.4892632067203522,0.18621401488780975,0.0007120812661014497,0.03648070991039276,0.0,0.29674139618873596,0.5257439017295837,0.18621401488780975,0.3502209186553955,-0.09624552726745605,13.176568984985352,0.026572810485959053,0.007301585283130407,-0.0002480732509866357,-0.009284171275794506,0.029700476676225662,-0.010508958250284195,0.029532700777053833,-0.019573818892240524,-0.25841695070266724,0.029895920306444168,-7.998233195394278e-05,13.181573867797852,6.990698337554932,6.190875053405762,1839.0,1774.0,-0.011393300257623196,-0.5836913585662842,-0.04185539484024048,0.004904360510408878,-0.01930161379277706,-0.01718294247984886,-0.0013535122852772474,0.12953072786331177,0.02917572855949402,-0.08072435110807419,-0.059791840612888336,0.02173558808863163,-0.0321073941886425,-7.998236105777323e-05,1.0,0.09555617719888687,0.842544436454773,0,0.0,1210081701,1981,962
827477062,4,408,19900,10886,526475938,526476,519330,344,-293,11617,3787,-63,-348,-13,27.6875,-0.09789875149726868,0.010216722264885902,0.9984757900238037,0.2512786388397217,-1.409495234489441,-9.721664428710938,3.3269553184509277,0.44642373919487,6.301234722137451,1529,1500,1480,1500,2000,1000,1000,1000,1503,1504,1498,1831,1782,1569,1446,442,430,21148,21340,0,,,,,1,1,1,1,1,1,1,0,1,1,0,0,stabilized_mix,-1.454646110534668,-0.29288262128829956,0.5873384475708008,-0.06511788070201874,-0.0524798147380352,0.12022887915372849,0.0,0.04639999940991402,0.06511788070201874,0.09887981414794922,0.3263174295425415,0.5309044718742371,0.3255894184112549,0.4943990707397461,0.0007280094432644546,0.036505378782749176,0.0,0.0,1.0,0.3255894184112549,0.4943990707397461,0.18621401488780975,0.0007280094432644546,0.036505378782749176,0.0,0.3263174295425415,0.5309044718742371,0.18621401488780975,0.4205174148082733,-0.0924188494682312,13.17623519897461,0.031904008239507675,0.007010370958596468,-0.005298221483826637,-0.0047349631786346436,0.009046884253621101,-0.0015807179734110832,0.0037834167014807463,-0.0061251325532794,-0.25735554099082947,0.08483752608299255,-6.038125138729811e-05,13.183266639709473,6.893539905548096,6.289727210998535,1831.0,1782.0,-0.011648151092231274,-0.5840860605239868,-0.051703087985515594,0.029602501541376114,-0.020365316420793533,-0.00876522995531559,-0.028812076896429062,0.1285552680492401,0.004385639447718859,-0.024600332602858543,-0.1696750521659851,0.006801977753639221,-0.004115408286452293,-6.0381302319001406e-05,1.0,0.019819198176264763,0.8426526784896851,0,0.0,1074367685,1981,962
827477062,4,408,19910,10895,526515249,526516,519369,342,-3418,5939,8507,3,-124,-103,27.671875,-0.2283497154712677,0.12968358397483826,0.9787268042564392,1.934916377067566,1.799321174621582,-8.051899909973145,3.4679794311523438,-0.6035588979721069,6.00003719329834,1529,1500,1480,1500,2000,1000,1000,1000,1503,1516,1518,1831,1781,1569,1446,482,470,21148,21340,0,,,,,1,1,1,1,1,1,1,0,1,1,0,0,stabilized_mix,-0.9881659746170044,-0.21740975975990295,0.49318137764930725,-0.10153237730264664,-0.0523245595395565,0.14097164571285248,0.0,0.04639999940991402,0.10153237730264664,0.09872455894947052,0.5086071491241455,0.5303760170936584,0.5076618790626526,0.4936227798461914,0.0009452919475734234,0.03675321862101555,0.0,0.0,1.0,0.5076618790626526,0.4936227798461914,0.2008265107870102,0.0009452919475734234,0.03675321862101555,0.0,0.5086071491241455,0.5303760170936584,0.2008265107870102,0.9055712223052979,-0.14686793088912964,13.142111778259277,0.06879732012748718,0.011148468591272831,-0.016946878284215927,-0.013186231255531311,-0.011561173014342785,-0.012172367423772812,-0.028288738802075386,-0.0255611352622509,-0.24684175848960876,0.07026608288288116,-6.180151831358671e-05,13.174092292785645,6.896053791046143,6.278038501739502,1831.0,1781.0,-0.015124671161174774,-0.5880514979362488,-0.040146950632333755,0.07572701573371887,-0.022573288530111313,-0.024391716346144676,-0.09206851571798325,0.1222778707742691,0.03377066180109978,0.031404078006744385,-0.14053216576576233,0.028366826474666595,0.03073495626449585,-6.180148193379864e-05,1.0,0.09153592586517334,0.84206622838974,0,0.0,2341555051,1981,962
827477062,4,408,19911,10895,526519283,526520,519373,314,-746,10057,-1588,-203,-319,63,27.453125,0.011896245181560516,0.030433589592576027,0.9326366186141968,0.3745005130767822,2.0098724365234375,-9.739330291748047,3.47804594039917,-0.6915196180343628,5.966958522796631,1529,1500,1482,1500,2000,1000,1000,1000,1505,1507,1520,1828,1783,1569,1446,486,474,21148,21340,0,,,,,1,1,1,1,1,1,1,0,1,1,0,0,stabilized_mix,-0.8884264826774597,-0.18337026238441467,0.5868533253669739,-0.10500790923833847,-0.052796442061662674,0.1430438756942749,0.0,0.04639999940991402,0.10500790923833847,0.09919644147157669,0.5260108709335327,0.5327602028846741,0.525039553642273,0.49598219990730286,0.0009713398758322,0.03677799180150032,0.0,0.0,1.0,0.525039553642273,0.49598219990730286,0.2008265107870102,0.0009713398758322,0.03677799180150032,0.0,0.5260108709335327,0.5327602028846741,0.2008265107870102,0.9493472576141357,-0.1478654146194458,13.140470504760742,0.07212075591087341,0.011222949251532555,-0.0180470272898674,-0.0079227639362216,-0.012908197939395905,-0.0023548982571810484,-0.030908487737178802,-0.010552100837230682,-0.2456870824098587,0.0849916860461235,-5.6243385188281536e-05,13.175549507141113,6.868991851806641,6.306558132171631,1828.0,1783.0,-0.0155414380133152,-0.5884478688240051,-0.050260476768016815,0.0796331837773323,-0.023039933294057846,-0.014657983556389809,-0.0980837494134903,0.12137934565544128,0.006536266766488552,0.03507889062166214,-0.169983372092247,0.01171131432056427,0.03359203413128853,-5.624338882626034e-05,1.0,0.10000678896903992,0.8421593904495239,0,0.0,2427291151,1981,962
827477062,4,408,19912,10895,526523316,526524,519377,338,2897,5941,-4551,-17,-395,-27,27.640625,-0.10983161628246307,0.059552907943725586,0.8969443440437317,1.0650596618652344,1.2483224868774414,-8.040234565734863,3.5020663738250732,-0.7905492782592773,5.932817459106445,1529,1500,1480,1500,2000,1000,1000,1000,1503,1511,1516,1830,1781,1569,1446,490,478,21148,21340,0,,,,,1,1,1,1,1,1,1,0,1,1,0,0,stabilized_mix,-0.9654552936553955,-0.22500313818454742,0.5439152717590332,-0.10511987656354904,-0.051491670310497284,0.14504152536392212,0.0,0.04639999940991402,0.10511987656354904,0.0978916734457016,0.5265967845916748,0.5262607932090759,0.5255993604660034,0.4894583821296692,0.000997410505078733,0.03680243343114853,0.0,0.0,1.0,0.5255993604660034,0.4894583821296692,0.20525726675987244,0.000997410505078733,0.03680243343114853,0.0,0.5265967845916748,0.5262607932090759,0.20525726675987244,0.971439003944397,-0.16133630275726318,13.132196426391602,0.07383935153484344,0.01225146371871233,-0.017486166208982468,-0.010827738791704178,-0.008023430593311787,-0.006702771410346031,-0.025388561189174652,-0.017668329179286957,-0.24449534714221954,0.0701642856001854,-6.101583130657673e-05,13.1690673828125,6.889612674713135,6.279454231262207,1830.0,1781.0,-0.015958568081259727,-0.5888389348983765,-0.04486057907342911,0.07512034475803375,-0.022661710157990456,-0.020019110292196274,-0.09497639536857605,0.12082351744174957,0.018588798120617867,0.021787337958812714,-0.1403285712003708,0.019601842388510704,0.027578091248869896,-6.101587132434361e-05,1.0,0.08215136080980301,0.8417450785636902,0,0.0,2454483914,1981,962
827477062,4,408,19913,10895,526527349,526528,519381,326,-1855,8242,5814,-87,-344,-180,27.546875,-0.12361627072095871,0.07795674353837967,0.9997367262840271,2.3518431186676025,3.3582916259765625,-10.318758964538574,3.4754557609558105,-0.8248339891433716,5.892030715942383,1529,1500,1480,1500,2000,1000,1000,1000,1503,1519,1526,1827,1784,1569,1446,494,482,21148,21340,0,,,,,1,1,1,1,1,1,1,0,1,1,0,0,stabilized_mix,-0.8508238792419434,-0.158084437251091,0.5213001370429993,-0.1081441193819046,-0.05174178630113602,0.14716671407222748,0.0,0.04639999940991402,0.1081441193819046,0.09814178943634033,0.5417448282241821,0.5275359153747559,0.5407205820083618,0.49070894718170166,0.0010242679854854941,0.036826957017183304,0.0,0.0,1.0,0.5407205820083618,0.49070894718170166,0.20525726675987244,0.0010242679854854941,0.036826957017183304,0.0,0.5417448282241821,0.5275359153747559,0.20525726675987244,0.9996063709259033,-0.15501374006271362,13.131406784057617,0.07597679644823074,0.011770208366215229,-0.020290473476052284,-0.015319420956075191,-0.02158716693520546,-0.014799307100474834,-0.04154328256845474,-0.03060409054160118,-0.24307161569595337,0.0900481566786766,-5.3558265790343285e-05,13.170310020446777,6.8529462814331055,6.317363739013672,1827.0,1784.0,-0.016388287767767906,-0.5892313122749329,-0.03693462163209915,0.0904085785150528,-0.023094667121767998,-0.028326870873570442,-0.11017721891403198,0.12009089440107346,0.04104740545153618,0.05861324444413185,-0.1800963133573532,0.03394974768161774,0.04510631412267685,-5.355820758268237e-05,1.0,0.1343948096036911,0.841824471950531,0,0.0,2733928706,1981,962
827477062,4,408,19915,10896,526535412,526536,519389,344,-1320,5760,219,-62,-206,58,27.6875,-0.16697943210601807,0.10741002857685089,0.9157302379608154,0.8285324573516846,2.8146114349365234,-6.797358989715576,3.4905507564544678,-0.9983445405960083,5.82261323928833,1529,1500,1480,1500,2000,1000,1000,1000,1503,1510,1525,1831,1780,1569,1446,502,490,21148,21340,0,,,,,1,1,1,1,1,1,1,0,1,1,0,0,stabilized_mix,-0.866951048374176,-0.16133172810077667,0.5330071449279785,-0.11047004908323288,-0.050471507012844086,0.1512955278158188,0.0,0.04639999940991402,0.11047004908323288,0.0968715101480484,0.553429126739502,0.521233081817627,0.5523502230644226,0.4843575358390808,0.0010788983199745417,0.03687554970383644,0.0,0.0,1.0,0.5523502230644226,0.4843575358390808,0.20813728868961334,0.0010788983199745417,0.03687554970383644,0.0,0.553429126739502,0.521233081817627,0.20813728868961334,1.0534908771514893,-0.16722363233566284,13.123546600341797,0.08010309189558029,0.012700716964900494,-0.020707525312900543,-0.01057127583771944,-0.018092568963766098,-0.005214331671595573,-0.03872699290513992,-0.01605285331606865,-0.24064849317073822,0.05931814759969711,-6.346567533910275e-05,13.166825294494629,6.900741100311279,6.266084671020508,1831.0,1780.0,-0.017262373119592667,-0.5900087952613831,-0.04573751240968704,0.0891784131526947,-0.023327860981225967,-0.019544726237654686,-0.11245983839035034,0.11853790283203125,0.014460619539022446,0.04912423714995384,-0.11863629519939423,0.017806269228458405,0.04205476865172386,-6.346562440739945e-05,1.0,0.1252933144569397,0.8416017293930054,0,0.0,3404029705,1982,963
827477062,4,408,19916,10896,526539450,526540,519393,320,-1210,10575,2364,-266,-489,-148,27.5,-0.06707129627466202,0.06744895130395889,1.0240468978881836,1.9785155057907104,5.631163597106934,-11.090981483459473,3.470663070678711,-1.0208920240402222,5.782216548919678,1529,1500,1480,1500,2000,1000,1000,1000,1503,1518,1538,1825,1786,1569,1446,506,494,21148,21340,0,,,,,1,1,1,1,1,1,1,0,1,1,0,0,stabilized_mix,-0.7377365231513977,-0.10416655242443085,0.5250157713890076,-0.1130739152431488,-0.050521451979875565,0.15341831743717194,0.0,0.04639999940991402,0.1130739152431488,0.09692145138978958,0.5664766430854797,0.5215070247650146,0.5653696060180664,0.4846072494983673,0.001107014250010252,0.03689977899193764,0.0,0.0,1.0,0.5653696060180664,0.4846072494983673,0.20813728868961334,0.001107014250010252,0.03689977899193764,0.0,0.5664766430854797,0.5215070247650146,0.20813728868961334,1.0759841203689575,-0.1634659767150879,13.122828483581543,0.08181030303239822,0.012414311990141869,-0.024252455681562424,-0.015055769123136997,-0.036207906901836395,-0.012452798895537853,-0.060173943638801575,-0.02837982028722763,-0.23923838138580322,0.09678707271814346,-4.985800478607416e-05,13.167881965637207,6.833230972290039,6.334650993347168,1825.0,1786.0,-0.017712228000164032,-0.5903964638710022,-0.038202669471502304,0.10872159898281097,-0.023854009807109833,-0.027835523709654808,-0.13167107105255127,0.11770336329936981,0.0345316082239151,0.0982823446393013,-0.19357414543628693,0.03147757053375244,0.0653085857629776,-4.985795749234967e-05,1.0,0.1946108490228653,0.8416693210601807,0,0.0,362092506,1982,963
827477062,4,408,19917,10896,526543478,526544,519397,322,2907,6321,-365,-112,-438,-125,27.515625,-0.10760650038719177,-0.028830982744693756,0.8990316987037659,2.540452480316162,3.1195456981658936,-11.337918281555176,3.4575035572052,-1.1480218172073364,5.742244243621826,1529,1500,1480,1500,2000,1000,1000,1000,1503,1521,1526,1825,1786,1569,1446,510,498,21148,21340,0,,,,,1,1,1,1,1,1,1,0,1,1,0,0,stabilized_mix,-0.8730195760726929,-0.07307261228561401,0.5749809741973877,-0.11235436052083969,-0.048944491893053055,0.15544621646404266,0.0,0.04639999940991402,0.11235436052083969,0.09534449130296707,0.5629067420959473,0.5136460661888123,0.561771810054779,0.47672244906425476,0.0011349197011440992,0.0369236133992672,0.0,0.0,1.0,0.561771810054779,0.47672244906425476,0.20468932390213013,0.0011349197011440992,0.0369236133992672,0.0,0.5629067420959473,0.5136460661888123,0.20468932390213013,1.0987915992736816,-0.17019665241241455,13.124702453613281,0.08352457731962204,0.012921731919050217,-0.021627914160490036,-0.01660412922501564,-0.020053185522556305,-0.015983346849679947,-0.0412796288728714,-0.03308481723070145,-0.2378430813550949,0.09894200414419174,-4.861538764089346e-05,13.171717643737793,6.828935623168945,6.342782020568848,1825.0,1786.0,-0.018158715218305588,-0.5907778143882751,-0.033890437334775925,0.0924253761768341,-0.02302411012351513,-0.030707549303770065,-0.11743902415037155,0.11724308878183365,0.04433925822377205,0.05444634333252907,-0.19788400828838348,0.03670593723654747,0.04482193663716316,-4.861537672695704e-05,1.0,0.13354378938674927,0.8419144749641418,0,0.0,2877827364,1982,963
827477062,4,408,19918,10896,526547511,526548,519401,320,-1846,3626,2270,-35,-98,71,27.5,-0.1603575497865677,0.11532135307788849,0.8990094661712646,1.5011656284332275,3.034005641937256,-7.763453483581543,3.459481716156006,-1.233025312423706,5.702376842498779,1529,1500,1480,1500,2000,1000,1000,1000,1503,1515,1526,1830,1782,1569,1446,514,502,21148,21340,0,,,,,1,1,1,1,1,1,1,0,1,1,0,0,stabilized_mix,-0.8938784003257751,-0.10128004848957062,0.5171732902526855,-0.11525184661149979,-0.04877641052007675,0.15742474794387817,0.0,0.04639999940991402,0.11525184661149979,0.09517641365528107,0.5774227976799011,0.5128294825553894,0.5762592554092407,0.47588205337524414,0.0011635496048256755,0.03694741427898407,0.0,0.0,1.0,0.5762592554092407,0.47588205337524414,0.20468932390213013,0.0011635496048256755,0.03694741427898407,0.0,0.5774227976799011,0.5128294825553894,0.20468932390213013,1.1374390125274658,-0.17302197217941284,13.122491836547852,0.08646248281002045,0.013135137036442757,-0.022270269691944122,-0.01305919885635376,-0.01949472166597843,-0.009444761089980602,-0.041610389947891235,-0.022831128910183907,-0.23645144701004028,0.06774891167879105,-5.904585123062134e-05,13.172831535339355,6.881645202636719,6.291186809539795,1830.0,1782.0,-0.018616793677210808,-0.5911586284637451,-0.04052459076046944,0.09414520859718323,-0.023345274850726128,-0.024153651669621468,-0.12098429352045059,0.11631397902965546,0.02620028331875801,0.052953388541936874,-0.1354978233575821,0.02533572167158127,0.04519840329885483,-5.904588761040941e-05,1.0,0.1346154510974884,0.8419856429100037,0,0.0,3230047587,1982,963
827477062,4,408,19919,10896,526551544,526552,519405,320,-1983,11332,-793,-316,-364,-43,27.5,0.008477890864014626,0.0608246773481369,1.0088140964508057,1.5291433334350586,5.258635520935059,-10.095220565795898,3.4396169185638428,-1.224234700202942,5.660943031311035,1529,1500,1480,1500,2000,1000,1000,1000,1503,1516,1537,1827,1786,1569,1446,518,506,21148,21340,0,,,,,1,1,1,1,1,1,1,0,1,1,0,0,stabilized_mix,-0.6710568070411682,-0.04776289314031601,0.5159390568733215,-0.11397147923707962,-0.046949584037065506,0.1594397872686386,0.0,0.04639999940991402,0.11397147923707962,0.09334958344697952,0.5710498094558716,0.503718912601471,0.5698574185371399,0.466747909784317,0.0011923748534172773,0.03697097674012184,0.0,0.0,1.0,0.5698574185371399,0.466747909784317,0.19845815002918243,0.0011923748534172773,0.03697097674012184,0.0,0.5710498094558716,0.503718912601471,0.19845815002918243,1.1252663135528564,-0.17990320920944214,13.130791664123535,0.08548790216445923,0.013649984262883663,-0.024633554741740227,-0.01428877841681242,-0.03377750515937805,-0.009614936076104641,-0.05821571499109268,-0.024640746414661407,-0.23500514030456543,0.08809741586446762,-5.1417737267911434e-05,13.180148124694824,6.84716272354126,6.3329854011535645,1827.0,1786.0,-0.019077997654676437,-0.5915356278419495,-0.03867326304316521,0.10751473158597946,-0.023728668689727783,-0.02644023485481739,-0.13388760387897491,0.1153825968503952,0.026688585057854652,0.09178050607442856,-0.17619483172893524,0.0273586492985487,0.0632515475153923,-5.141770088812336e-05,1.0,0.18828706443309784,0.8424533009529114,0,0.0,3868960627,1982,963
827477062,4,408,19932,10908,526603973,526604,519457,340,3696,3203,-1800,163,-420,-77,27.65625,0.08592009544372559,0.0016431361436843872,0.9063853025436401,4.508928298950195,-3.154768705368042,-9.409867286682129,3.0523767471313477,-1.4982317686080933,5.131317615509033,1529,1500,1480,1500,2000,1000,1000,1000,1503,1532,1496,1826,1788,1569,1446,570,558,21148,21340,0,,,,,1,1,1,1,1,1,1,0,1,1,0,0,stabilized_mix,-0.011688575148582458,0.1874285638332367,0.2448735386133194,-0.1083582192659378,-0.03086315467953682,0.17531803250312805,0.0,0.04639999940991402,0.1083582192659378,0.07726315408945084,0.543354332447052,0.42356789112091064,0.5417910814285278,0.3863157629966736,0.001563229481689632,0.03725212439894676,0.0,0.0,1.0,0.5417910814285278,0.3863157629966736,0.17928771674633026,0.001563229481689632,0.03725212439894676,-0.0,0.543354332447052,0.42356789112091064,0.17928771674633026,1.135522723197937,-0.1901479959487915,13.148515701293945,0.08614753931760788,0.014406929723918438,-0.014686654321849346,-0.022953368723392487,0.020252123475074768,-0.02831270545721054,0.006165878847241402,-0.050871796905994415,-0.21651771664619446,0.08211658149957657,-4.704040475189686e-05,13.198826789855957,6.834615707397461,6.364211559295654,1826.0,1788.0,-0.02501167170703411,-0.5960339903831482,-0.011880898848176003,0.05048602446913719,-0.02113969624042511,-0.04253620654344559,-0.07986243814229965,0.10781364142894745,0.07869564741849899,-0.05506110191345215,-0.16423316299915314,0.056541964411735535,-0.00670657679438591,-4.7040397475939244e-05,1.0,0.16455437242984772,0.8436472415924072,0,0.0,2116668816,1982,963
827477062,4,408,19933,10908,526608003,526608,519461,328,-3362,8035,3767,61,-55,-182,27.5625,-0.09758540242910385,0.04474394768476486,0.9741148948669434,5.517205715179443,-3.055885076522827,-7.76478385925293,2.980562925338745,-1.4859962463378906,5.087791442871094,1529,1500,1480,1500,2000,1000,1000,1000,1503,1538,1496,1827,1786,1569,1446,574,562,21148,21340,0,,,,,1,1,1,1,1,1,1,0,1,1,0,0,stabilized_mix,0.05876436084508896,0.2633226215839386,0.23703525960445404,-0.10737012326717377,-0.02949674054980278,0.17612230777740479,0.0,0.04639999940991402,0.10737012326717377,0.0758967399597168,0.5384407639503479,0.41675490140914917,0.53685063123703,0.379483699798584,0.0015901338774710894,0.03727119043469429,0.0,0.0,1.0,0.53685063123703,0.379483699798584,0.17928771674633026,0.0015901338774710894,0.03727119043469429,-0.0,0.5384407639503479,0.41675490140914917,0.17928771674633026,1.1248152256011963,-0.18175983428955078,13.148770332336426,0.08533751964569092,0.01377215888351202,-0.014569209888577461,-0.025951817631721497,0.019628945738077164,-0.034649960696697235,0.005667335353791714,-0.060298576951026917,-0.21499836444854736,0.06776051968336105,-5.1533221267163754e-05,13.19804573059082,6.856688976287842,6.3413567543029785,1827.0,1786.0,-0.02544214203953743,-0.5963390469551086,-0.005048349965363741,0.050467055290937424,-0.021114246919751167,-0.04808799922466278,-0.07917095720767975,0.10735644400119781,0.09629340469837189,-0.05333525687456131,-0.1355210393667221,0.06700406223535538,-0.00616088230162859,-5.153323945705779e-05,1.0,0.19501380622386932,0.8435972929000854,0,0.0,4178499224,1982,963
827477062,4,408,19934,10908,526612036,526612,519465,328,335,12328,-906,54,-664,-157,27.5625,0.10838495194911957,-0.01544550433754921,1.0144057273864746,4.1044230461120605,-3.2298741340637207,-13.95923900604248,2.9494242668151855,-1.3970744609832764,5.046778678894043,1529,1500,1480,1500,2000,1000,1000,1000,1503,1530,1495,1819,1794,1569,1446,578,566,21148,21340,0,,,,,1,1,1,1,1,1,1,0,1,1,0,0,stabilized_mix,0.30090972781181335,0.23696349561214447,0.2601308524608612,-0.1025514230132103,-0.02667810022830963,0.1769593209028244,0.0,0.04639999940991402,0.1025514230132103,0.07307809591293335,0.5143734216690063,0.4026802182197571,0.5127571225166321,0.36539047956466675,0.0016163007821887732,0.03728974238038063,0.0,0.0,1.0,0.5127571225166321,0.36539047956466675,0.17130707204341888,0.0016163007821887732,0.03728974238038063,-0.0,0.5143734216690063,0.4026802182197571,0.17130707204341888,1.0698717832565308,-0.19099736213684082,13.161526679992676,0.08110947906970978,0.014463076367974281,-0.013490631245076656,-0.021728578954935074,0.020719509571790695,-0.025757674127817154,0.008037812076508999,-0.04687386006116867,-0.21356675028800964,0.12181734293699265,-3.211223520338535e-05,13.206319808959961,6.763720989227295,6.442598819732666,1819.0,1794.0,-0.02586081251502037,-0.5966358780860901,-0.012180878780782223,0.0458914116024971,-0.020865127444267273,-0.0402890108525753,-0.07341642677783966,0.1063544899225235,0.07163569331169128,-0.056371938437223434,-0.2436346858739853,0.052132051438093185,-0.008749481290578842,-3.211228977306746e-05,1.0,0.1516341120004654,0.8441261649131775,0,0.0,1445428900,1982,963
827477062,4,408,19935,10908,526615057,526616,519468,320,-4011,10753,-3973,112,-100,-238,27.5,-0.007547803223133087,0.11821945011615753,1.0226414203643799,6.36598539352417,-3.693495273590088,-6.785755157470703,2.9336965084075928,-1.421288251876831,5.017885208129883,1529,1500,1480,1500,2000,1000,1000,1000,1503,1544,1493,1829,1786,1569,1446,582,570,21148,21340,0,,,,,1,1,1,1,1,1,1,0,1,1,0,0,stabilized_mix,0.2337271273136139,0.18589498102664948,0.22770561277866364,-0.10130232572555542,-0.02574547752737999,0.17757515609264374,0.0,0.04639999940991402,0.10130232572555542,0.072145476937294,0.5081533193588257,0.3980351686477661,0.5065116286277771,0.36072736978530884,0.0016416755970567465,0.03730781376361847,0.0,0.0,1.0,0.5065116286277771,0.36072736978530884,0.17130707204341888,0.0016416755970567465,0.03730781376361847,-0.0,0.5081533193588257,0.3980351686477661,0.17130707204341888,1.066162347793579,-0.19257038831710815,13.161088943481445,0.08083216100931168,0.014582988806068897,-0.012800340540707111,-0.029549479484558105,0.023725150153040886,-0.03995896875858307,0.011537204496562481,-0.06920284777879715,-0.21255818009376526,0.05921688303351402,-5.366944242268801e-05,13.205606460571289,6.871150493621826,6.334455966949463,1829.0,1786.0,-0.026266809552907944,-0.5969250202178955,0.0028746447060257196,0.0424315482378006,-0.020919185131788254,-0.054783474653959274,-0.06955839693546295,0.10652916133403778,0.11110740154981613,-0.06446365267038345,-0.11843376606702805,0.07692635804414749,-0.012540278024971485,-5.366944969864562e-05,1.0,0.22376425564289093,0.8440805673599243,0,0.0,2278331532,1982,963
827477062,4,408,19936,10908,526619139,526620,519472,336,-143,8825,5002,122,-449,-284,27.625,-0.021841786801815033,-0.03623776137828827,1.0211862325668335,5.628961563110352,-3.8266851902008057,-13.764760971069336,2.8729302883148193,-1.3471362590789795,4.9714860916137695,1529,1500,1480,1500,2000,1000,1000,1000,1503,1539,1491,1819,1794,1569,1446,586,574,21148,21340,0,,,,,1,1,1,1,1,1,1,0,1,1,0,0,stabilized_mix,0.370664119720459,0.27608010172843933,0.26008033752441406,-0.09927014261484146,-0.02456304430961609,0.17849910259246826,0.0,0.04639999940991402,0.09927014261484146,0.07096303999423981,0.4980173408985138,0.39214083552360535,0.4963507056236267,0.35481518507003784,0.0016666310839354992,0.03732563927769661,0.0,0.0,1.0,0.4963507056236267,0.35481518507003784,0.17130707204341888,0.0016666310839354992,0.03732563927769661,-0.0,0.4980173408985138,0.39214083552360535,0.17130707204341888,1.0342501401901245,-0.18491804599761963,13.162691116333008,0.07841325551271439,0.014004566706717014,-0.012074096128344536,-0.026469536125659943,0.024571236222982407,-0.0353330597281456,0.013593695126473904,-0.0611015185713768,-0.21093854308128357,0.12012019753456116,-3.178638871759176e-05,13.20455551147461,6.761209964752197,6.44334602355957,1819.0,1794.0,-0.026666097342967987,-0.5972102284431458,-0.00172729033511132,0.03961316868662834,-0.020797094330191612,-0.0490708127617836,-0.0656423568725586,0.10560235381126404,0.09824391454458237,-0.06678825616836548,-0.24024039506912231,0.06792736053466797,-0.014782280661165714,-3.1786421459401026e-05,1.0,0.19760359823703766,0.8440133929252625,0,0.0,1061889257,1983,964
827477062,4,408,19937,10908,526623148,526624,519476,326,4350,3546,-1640,204,-615,-47,27.546875,0.08183053135871887,-0.00223425030708313,0.8870150446891785,5.081686973571777,-5.695847034454346,-11.489234924316406,2.8528504371643066,-1.3956197500228882,4.934653282165527,1529,1500,1480,1500,2000,1000,1000,1000,1503,1535,1482,1822,1792,1569,1446,590,578,21148,21340,0,,,,,1,1,1,1,1,1,1,0,1,1,0,0,stabilized_mix,0.28078681230545044,0.18643246591091156,0.2937967777252197,-0.09466006606817245,-0.022370925173163414,0.1793573498725891,0.0,0.04639999940991402,0.09466006606817245,0.06877092272043228,0.47499072551727295,0.3811975121498108,0.47330033779144287,0.3438546061515808,0.0016903961077332497,0.037342898547649384,0.0,0.0,1.0,0.47330033779144287,0.3438546061515808,0.16877970099449158,0.0016903961077332497,0.037342898547649384,-0.0,0.47499072551727295,0.3811975121498108,0.16877970099449158,1.0125226974487305,-0.19218933582305908,13.165543556213379,0.07675592601299286,0.014553896151483059,-0.00960774626582861,-0.024741413071751595,0.03656024485826492,-0.03189358860254288,0.02777821198105812,-0.05574937164783478,-0.209652841091156,0.10026248544454575,-3.828667104244232e-05,13.205819129943848,6.794342994689941,6.411476135253906,1822.0,1792.0,-0.027046337723731995,-0.5974863767623901,-0.0037923103664070368,0.02523498237133026,-0.020572027191519737,-0.045870788395404816,-0.05225227773189545,0.10507260262966156,0.08869216591119766,-0.09941128641366959,-0.2005249708890915,0.06198965758085251,-0.03021487034857273,-3.828662374871783e-05,1.0,0.18031330406665802,0.8440941572189331,0,0.0,242641192,1983,964
827477062,4,408,19938,10908,526627179,526628,519480,346,-5491,9286,-245,166,75,-275,27.703125,-0.14533589780330658,0.10099013149738312,0.9955685138702393,7.419132232666016,-5.1059064865112305,-6.444135665893555,2.7816550731658936,-1.4514554738998413,4.886162281036377,1529,1500,1480,1500,2000,1000,1000,1000,1503,1550,1485,1828,1786,1569,1446,594,582,21148,21340,0,,,,,1,1,1,1,1,1,1,0,1,1,0,0,stabilized_mix,0.11878657341003418,0.23049788177013397,0.23792165517807007,-0.09306711703538895,-0.021070007234811783,0.1802539974451065,0.0,0.04639999940991402,0.09306711703538895,0.0674700066447258,0.46704933047294617,0.3747099041938782,0.46533557772636414,0.3373500406742096,0.001713744830340147,0.037359852343797684,0.0,0.0,1.0,0.46533557772636414,0.3373500406742096,0.16877970099449158,0.001713744830340147,0.037359852343797684,-0.0,0.46704933047294617,0.3747099041938782,0.16877970099449158,1.01338529586792,-0.1831139326095581,13.164727210998535,0.07682580500841141,0.013867518864572048,-0.01020695548504591,-0.03243527561426163,0.03282596170902252,-0.04657664895057678,0.023293718695640564,-0.07861525565385818,-0.20796018838882446,0.05623569339513779,-5.310354754328728e-05,13.20494270324707,6.8679890632629395,6.336953639984131,1828.0,1786.0,-0.027419917285442352,-0.5977576375007629,0.011669077910482883,0.028357012197375298,-0.020819304510951042,-0.0601290762424469,-0.05543062835931778,0.10480920225381851,0.1294882893562317,-0.08911488205194473,-0.11247138679027557,0.08736509829759598,-0.025297481566667557,-5.310356937116012e-05,1.0,0.25414136052131653,0.8440381288528442,0,0.0,3693610990,1983,964
827477062,4,408,19939,10908,526631230,526632,519484,344,530,12762,1556,101,-635,-235,27.6875,0.05280912667512894,-0.04878139868378639,1.0315755605697632,5.515321731567383,-4.947237491607666,-15.839689254760742,2.7346372604370117,-1.3994958400726318,4.840989589691162,1529,1500,1480,1500,2000,1000,1000,1000,1503,1538,1485,1816,1797,1569,1446,598,586,21148,21340,0,,,,,1,1,1,1,1,1,1,0,1,1,0,0,stabilized_mix,0.2953260838985443,0.2754620909690857,0.2673709988594055,-0.09158214926719666,-0.019886182621121407,0.18111442029476166,0.0,0.04639999940991402,0.09158214926719666,0.06628618389368057,0.45964744687080383,0.3688073754310608,0.4579107463359833,0.33143091201782227,0.0017366984393447638,0.03737647086381912,0.0,0.0,1.0,0.4579107463359833,0.33143091201782227,0.16877970099449158,0.0017366984393447638,0.03737647086381912,-0.0,0.45964744687080383,0.3688073754310608,0.16877970099449158,0.9903326630592346,-0.17900997400283813,13.165739059448242,0.075079046189785,0.01355751883238554,-0.010022398084402084,-0.025534767657518387,0.03176416456699371,-0.03462119400501251,0.02297733724117279,-0.05909296125173569,-0.2063833624124527,0.13822735846042633,-2.3854547180235386e-05,13.204147338867188,6.721346378326416,6.4828009605407715,1816.0,1797.0,-0.02778717502951622,-0.598023533821106,-0.00038820176268927753,0.02774854749441147,-0.020527834072709084,-0.0473339706659317,-0.054497428238391876,0.10347967594861984,0.09626052528619766,-0.08634558320045471,-0.27645471692085266,0.06569553911685944,-0.02498663030564785,-2.385459993092809e-05,1.0,0.1911170333623886,0.8439873456954956,0,0.0,3395585761,1983,964
827477062,4,408,19940,10908,526635243,526636,519488,304,3819,2817,-5074,221,-568,-139,27.375,0.09140308201313019,0.057356588542461395,0.9023556709289551,6.8297119140625,-6.3291335105896,-9.872994422912598,2.7144768238067627,-1.457123875617981,4.801990032196045,1529,1500,1480,1500,2000,1000,1000,1000,1503,1546,1479,1823,1790,1569,1446,602,590,21148,21340,0,,,,,1,1,1,1,1,1,1,0,1,1,0,0,stabilized_mix,0.1718502640724182,0.16818022727966309,0.2591308355331421,-0.08756662905216217,-0.017655149102211,0.18189109861850739,0.0,0.04639999940991402,0.08756662905216217,0.06405514478683472,0.43959179520606995,0.35766828060150146,0.43783313035964966,0.3202757239341736,0.0017586597241461277,0.037392549216747284,0.0,0.0,1.0,0.43783313035964966,0.3202757239341736,0.1697968989610672,0.0017586597241461277,0.037392549216747284,-0.0,0.43959179520606995,0.35766828060150146,0.1697968989610672,0.9746412038803101,-0.18670856952667236,13.163557052612305,0.07390601187944412,0.014144085347652435,-0.008128891699016094,-0.03041713498532772,0.04068760573863983,-0.042887911200523376,0.033511459827423096,-0.07248172909021378,-0.20502202212810516,0.08615812659263611,-4.160241223871708e-05,13.200909614562988,6.808466911315918,6.39244270324707,1823.0,1790.0,-0.028138555586338043,-0.5982807874679565,0.009647899307310581,0.01689951680600643,-0.020671270787715912,-0.05636860430240631,-0.04414473846554756,0.1034114882349968,0.11920095980167389,-0.11046421527862549,-0.17231625318527222,0.08053743839263916,-0.03639710322022438,-4.160236130701378e-05,1.0,0.23435154557228088,0.8437803387641907,0,0.0,596782958,1983,964
827477062,4,408,19952,10919,526683609,526684,519536,328,-6929,6673,3697,537,284,-406,27.5625,-0.11101359128952026,0.13320913910865784,1.0001378059387207,10.129679679870605,-13.664297103881836,-2.545419216156006,1.932279348373413,-1.5485343933105469,4.359288215637207,1529,1500,1480,1500,2000,1000,1000,1000,1503,1564,1441,1830,1783,1569,1446,650,638,21148,21340,0,,,,,1,1,1,1,1,1,1,0,1,1,0,0,stabilized_mix,0.30439165234565735,0.36140307784080505,0.2851848304271698,-0.057628024369478226,0.0020574049558490515,0.1926555633544922,0.0,0.04639999940991402,0.057628024369478226,0.04434259608387947,0.290116548538208,0.2592676877975464,0.28814011812210083,0.22171297669410706,0.001976432977244258,0.03755471482872963,0.0,0.0,1.0,0.28814011812210083,0.22171297669410706,0.16482052206993103,0.001976432977244258,0.03755471482872963,-0.0,0.290116548538208,0.2592676877975464,0.16482052206993103,0.7785341739654541,-0.12096166610717773,13.172142028808594,0.05903591960668564,0.00916688796132803,0.0038625122979283333,-0.03725772351026535,0.08818105608224869,-0.06365654617547989,0.09242827445268631,-0.10055116564035416,-0.18956880271434784,0.02221297286450863,-5.857448559254408e-05,13.195684432983398,6.890714645385742,6.304969787597656,1830.0,1783.0,-0.03162292763590813,-0.6008754372596741,0.03921043500304222,-0.04774302989244461,-0.022541407495737076,-0.0690150260925293,0.020921483635902405,0.09827563166618347,0.17679625749588013,-0.23848697543144226,-0.04442594572901726,0.11159088462591171,-0.09997691214084625,-5.8574540162226185e-05,1.0,0.32484087347984314,0.8434463739395142,0,0.0,301242220,1983,964
827477062,4,408,19953,10919,526687641,526688,519540,320,2971,13275,357,332,-648,-229,27.5,0.10070779919624329,-0.16328568756580353,1.0005959272384644,6.4991960525512695,-13.105926513671875,-12.750541687011719,1.8515994548797607,-1.4934622049331665,4.332964897155762,1529,1500,1480,1500,2000,1000,1000,1000,1503,1540,1443,1817,1796,1569,1446,654,642,21148,21340,0,,,,,1,1,1,1,1,1,1,0,1,1,0,0,stabilized_mix,0.47740933299064636,0.4199681580066681,0.3681960701942444,-0.055586136877536774,0.003484913147985935,0.19384454190731049,0.0,0.04639999940991402,0.055586136877536774,0.042915087193250656,0.27992114424705505,0.25214099884033203,0.27793067693710327,0.21457543969154358,0.001990471500903368,0.03756554797291756,0.0,0.0,1.0,0.27793067693710327,0.21457543969154358,0.16482052206993103,0.001990471500903368,0.03756554797291756,-0.0,0.27992114424705505,0.25214099884033203,0.16482052206993103,0.7510992288589478,-0.11091282963752747,13.173151969909668,0.05695575848221779,0.008405760861933231,0.003567700507119298,-0.023557372391223907,0.08430775254964828,-0.040829017758369446,0.08907029032707214,-0.06209380924701691,-0.1886499524116516,0.11126946657896042,-2.7083209715783596e-05,13.195014953613281,6.73292350769043,6.462091445922852,1817.0,1796.0,-0.03184754401445389,-0.6010487675666809,0.014928879216313362,-0.04633914679288864,-0.0205778107047081,-0.04364106059074402,0.019385207444429398,0.0961354523897171,0.1134323701262474,-0.2287415713071823,-0.22253893315792084,0.06897930055856705,-0.09665223956108093,-2.7083169698016718e-05,1.0,0.2878575026988983,0.8434035778045654,0,0.0,1384136462,1983,964
827477062,4,408,19954,10919,526691675,526692,519544,332,4352,3745,-8243,600,-225,-208,27.59375,0.14921444654464722,0.07109761238098145,0.8937095999717712,9.198412895202637,-17.155683517456055,-2.3503963947296143,1.8613375425338745,-1.5385658740997314,4.317089557647705,1529,1500,1480,1500,2000,1000,1000,1000,1503,1558,1424,1831,1783,1569,1446,658,646,21148,21340,0,,,,,1,1,1,1,1,1,1,0,1,1,0,0,stabilized_mix,0.3976976275444031,0.22719153761863708,0.32993513345718384,-0.05206479877233505,0.005172278266400099,0.19488660991191864,0.0,0.04639999940991402,0.05206479877233505,0.04122772067785263,0.26232779026031494,0.2437145709991455,0.26032400131225586,0.20613861083984375,0.0020038026850670576,0.03757595270872116,0.0,0.0,1.0,0.26032400131225586,0.20613861083984375,0.160573348402977,0.0020038026850670576,0.03757595270872116,-0.0,0.26232779026031494,0.2437145709991455,0.160573348402977,0.7366950511932373,-0.12290054559707642,13.178698539733887,0.0558423213660717,0.009310890920460224,0.008613054640591145,-0.03371758759021759,0.11065865308046341,-0.05777949094772339,0.11963961273431778,-0.09102611988782883,-0.1880957931280136,0.020511077716946602,-5.865469574928284e-05,13.199846267700195,6.8931965827941895,6.306649684906006,1831.0,1783.0,-0.03206084296107292,-0.6012152433395386,0.03515622764825821,-0.073581762611866,-0.022909844294190407,-0.062479279935359955,0.04670695960521698,0.09783873707056046,0.1605425924062729,-0.2994231581687927,-0.041022155433893204,0.10108248144388199,-0.12944424152374268,-5.8654648455558345e-05,1.0,0.3862364888191223,0.8437123894691467,0,0.0,542555275,1983,964
827477062,4,408,19955,10919,526695711,526696,519548,324,-7854,6993,5608,560,248,-406,27.53125,-0.09128761291503906,0.09177210181951523,1.0011204481124878,9.520000457763672,-14.943269729614258,-4.826411724090576,1.7395447492599487,-1.5344399213790894,4.280233860015869,1529,1500,1480,1500,2000,1000,1000,1000,1503,1559,1434,1827,1787,1569,1446,662,650,21148,21340,0,,,,,1,1,1,1,1,1,1,0,1,1,0,0,stabilized_mix,0.4169520139694214,0.3826923370361328,0.31499674916267395,-0.049767106771469116,0.006864065770059824,0.19611573219299316,0.0,0.04639999940991402,0.049767106771469116,0.03953593224287033,0.25085192918777466,0.2352656126022339,0.24883553385734558,0.19767966866493225,0.0020163841545581818,0.03758595138788223,0.0,0.0,1.0,0.24883553385734558,0.19767966866493225,0.160573348402977,0.0020163841545581818,0.03758595138788223,-0.0,0.25085192918777466,0.2352656126022339,0.160573348402977,0.7190501689910889,-0.10499763488769531,13.179123878479004,0.05450574681162834,0.007954967208206654,0.006369610317051411,-0.03389255702495575,0.09636147320270538,-0.059804826974868774,0.1034177765250206,-0.09278779476881027,-0.18680928647518158,0.042118389159440994,-5.0641829147934914e-05,13.199142456054688,6.852780342102051,6.346362113952637,1827.0,1787.0,-0.03226214647293091,-0.6013752222061157,0.036922670900821686,-0.06109736114740372,-0.022531434893608093,-0.06279976665973663,0.03452948480844498,0.09681381285190582,0.1661553531885147,-0.2608092427253723,-0.08423677831888199,0.10302924364805222,-0.11193851381540298,-5.0641814596019685e-05,1.0,0.33407488465309143,0.8436673879623413,0,0.0,3753267393,1983,964
827477062,4,408,19956,10919,526699769,526700,519552,324,4446,12250,-162,328,-676,-133,27.53125,0.12472446262836456,-0.16370409727096558,0.9577643871307373,5.976269245147705,-14.473432540893555,-11.636547088623047,1.6789685487747192,-1.4924075603485107,4.257424354553223,1529,1500,1480,1500,2000,1000,1000,1000,1503,1536,1436,1818,1795,1569,1446,666,654,21148,21340,0,,,,,1,1,1,1,1,1,1,0,1,1,0,0,stabilized_mix,0.5454094409942627,0.3822527825832367,0.39832982420921326,-0.047493066638708115,0.008190082386136055,0.19734890758991241,0.0,0.04639999940991402,0.047493066638708115,0.03820991516113281,0.23949375748634338,0.2286451756954193,0.23746533691883087,0.19104957580566406,0.0020284149795770645,0.03759559616446495,0.0,0.0,1.0,0.23746533691883087,0.19104957580566406,0.160573348402977,0.0020284149795770645,0.03759559616446495,-0.0,0.23949375748634338,0.2286451756954193,0.160573348402977,0.6931161880493164,-0.0988152027130127,13.179948806762695,0.052540287375450134,0.007486903574317694,0.006072402000427246,-0.020995143800973892,0.0930706188082695,-0.037530966103076935,0.10016527026891708,-0.056209564208984375,-0.1860130876302719,0.10154803097248077,-2.956273965537548e-05,13.198531150817871,6.747079372406006,6.451452255249023,1818.0,1795.0,-0.03245463967323303,-0.6015295386314392,0.013784641399979591,-0.05988682433962822,-0.02044910192489624,-0.03890607878565788,0.033016473054885864,0.09475384652614594,0.10430557280778885,-0.2526090443134308,-0.20309606194496155,0.06246733292937279,-0.10871988534927368,-2.9562768759205937e-05,1.0,0.32359930872917175,0.8436283469200134,0,0.0,397408272,1984,965
827477062,4,408,19957,10919,526703776,526704,519556,328,741,5036,-6900,682,-33,-299,27.5625,0.08139073848724365,0.12411707639694214,0.9337169528007507,9.856441497802734,-18.084903717041016,-0.7618570327758789,1.6749550104141235,-1.5413402318954468,4.2382378578186035,1529,1500,1480,1500,2000,1000,1000,1000,1503,1562,1419,1832,1782,1569,1446,670,658,21148,21340,0,,,,,1,1,1,1,1,1,1,0,1,1,0,0,stabilized_mix,0.4391558766365051,0.23271577060222626,0.3264174163341522,-0.04413192346692085,0.010144638828933239,0.1984674632549286,0.0,0.04639999940991402,0.04413192346692085,0.0362553596496582,0.22269919514656067,0.2188815325498581,0.22065961360931396,0.18127679824829102,0.0020395778119564056,0.037604738026857376,0.0,0.0,1.0,0.22065961360931396,0.18127679824829102,0.15914268791675568,0.0020395778119564056,0.037604738026857376,-0.0,0.22269919514656067,0.2188815325498581,0.15914268791675568,0.6804530024528503,-0.10944220423698425,13.181621551513672,0.051575563848018646,0.008291405625641346,0.010655165649950504,-0.03534743934869766,0.11674901843070984,-0.06191883981227875,0.12759235501289368,-0.09718120843172073,-0.18534335494041443,0.0066484566777944565,-6.254320032894611e-05,13.199625968933105,6.912528991699219,6.287096977233887,1832.0,1782.0,-0.03263324499130249,-0.601675808429718,0.041950833052396774,-0.0842280164361,-0.023701593279838562,-0.06549610197544098,0.05774533003568649,0.09690961241722107,0.1720273494720459,-0.3156411051750183,-0.013296913355588913,0.10789602249860764,-0.13792137801647186,-6.254321488086134e-05,1.0,0.41177666187286377,0.8436983227729797,0,0.0,2551331015,1984,965
827477062,4,408,19958,10919,526707803,526708,519560,324,-4867,7449,5412,578,62,-391,27.53125,-0.06139645352959633,0.019055984914302826,1.0185483694076538,8.809035301208496,-15.403861999511719,-6.608302593231201,1.558457374572754,-1.5261731147766113,4.2057671546936035,1529,1500,1480,1500,2000,1000,1000,1000,1503,1554,1431,1824,1789,1569,1446,674,662,21148,21340,0,,,,,1,1,1,1,1,1,1,0,1,1,0,0,stabilized_mix,0.47450804710388184,0.3871130049228668,0.32583123445510864,-0.04171830415725708,0.011683076620101929,0.19975462555885315,0.0,0.04639999940991402,0.04171830415725708,0.03471692278981209,0.21064168214797974,0.2111981362104416,0.2085915207862854,0.17358461022377014,0.0020501569379121065,0.03761352598667145,0.0,0.0,1.0,0.2085915207862854,0.17358461022377014,0.15914268791675568,0.0020501569379121065,0.03761352598667145,-0.0,0.21064168214797974,0.2111981362104416,0.15914268791675568,0.6596054434776306,-0.09173586964607239,13.182210922241211,0.049995847046375275,0.006950258277356625,0.007879620417952538,-0.030572928488254547,0.0992688462138176,-0.05533471703529358,0.10802211612462997,-0.08456181734800339,-0.1842099130153656,0.05766831710934639,-4.428951069712639e-05,13.19902229309082,6.820959091186523,6.378063678741455,1824.0,1789.0,-0.032802511006593704,-0.6018164157867432,0.034221719950437546,-0.069176085293293,-0.022274818271398544,-0.056649670004844666,0.04274676740169525,0.09521444141864777,0.15374666452407837,-0.26884812116622925,-0.11533663421869278,0.09391791373491287,-0.11698676645755768,-4.428955799085088e-05,1.0,0.348889023065567,0.8436597585678101,0,0.0,3432494633,1984,965
827477062,4,408,19959,10919,526711838,526712,519564,318,5703,10211,-1122,378,-633,-94,27.484375,0.1341266632080078,-0.12093030661344528,0.9248335957527161,6.3811445236206055,-16.11644744873047,-9.880817413330078,1.530608057975769,-1.525117039680481,4.188060283660889,1529,1500,1480,1500,2000,1000,1000,1000,1503,1538,1428,1820,1793,1569,1446,678,666,21148,21340,0,,,,,1,1,1,1,1,1,1,0,1,1,0,0,stabilized_mix,0.5057339668273926,0.31147903203964233,0.3985661268234253,-0.038478028029203415,0.01259558741003275,0.20095136761665344,0.0,0.04639999940991402,0.038478028029203415,0.03380441293120384,0.19445019960403442,0.20664408802986145,0.19239014387130737,0.1690220683813095,0.0020600606221705675,0.03762201592326164,0.0,0.0,1.0,0.19239014387130737,0.1690220683813095,0.15954278409481049,0.0020600606221705675,0.03762201592326164,-0.0,0.19445019960403442,0.20664408802986145,0.15954278409481049,0.6367441415786743,-0.08982574939727783,13.182201385498047,0.048265811055898666,0.006806128658354282,0.008953406475484371,-0.021795691922307014,0.10369821637868881,-0.04007881134748459,0.113606758415699,-0.059687383472919464,-0.183591827750206,0.08622639626264572,-3.407790791243315e-05,13.1978759765625,6.769327640533447,6.428548336029053,1820.0,1793.0,-0.03296096995472908,-0.6019522547721863,0.01861276850104332,-0.07579661160707474,-0.020906368270516396,-0.040385760366916656,0.04866012558341026,0.09389098733663559,0.1113719791173935,-0.2812850773334503,-0.17245279252529144,0.06632330268621445,-0.12321886420249939,-3.407790063647553e-05,1.0,0.3668470084667206,0.8435864448547363,0,0.0,2855306380,1984,965
827477062,4,408,19960,10919,526715873,526716,519568,332,-3036,6859,-3765,669,59,-341,27.59375,-0.021224498748779297,0.14981183409690857,0.9566746950149536,9.900986671447754,-17.974971771240234,-1.9420139789581299,1.5113295316696167,-1.6020207405090332,4.160600662231445,1529,1500,1480,1500,2000,1000,1000,1000,1503,1561,1419,1830,1784,1569,1446,682,670,21148,21340,0,,,,,1,1,1,1,1,1,1,0,1,1,0,0,stabilized_mix,0.33527201414108276,0.21816648542881012,0.30829882621765137,-0.036466147750616074,0.013979487121105194,0.20203284919261932,0.0,0.04639999940991402,0.036466147750616074,0.03242051228880882,0.1844000220298767,0.19973275065422058,0.18233074247837067,0.1621025651693344,0.002069286070764065,0.037630192935466766,0.0,0.0,1.0,0.18233074247837067,0.1621025651693344,0.15954278409481049,0.002069286070764065,0.037630192935466766,-0.0,0.1844000220298767,0.19973275065422058,0.15954278409481049,0.6399260759353638,-0.09366446733474731,13.181550979614258,0.04850901663303375,0.007097246591001749,0.011228012852370739,-0.0345492884516716,0.11604674905538559,-0.06221125274896622,0.12763306498527527,-0.09637586027383804,-0.18263331055641174,0.016947269439697266,-5.7990080676972866e-05,13.197407722473145,6.888654708862305,6.308753490447998,1830.0,1784.0,-0.03310857713222504,-0.6020830869674683,0.04347893223166466,-0.08819105476140976,-0.023736992850899696,-0.06400640308856964,0.060841966420412064,0.09543251991271973,0.1728048175573349,-0.3137224316596985,-0.03389453887939453,0.10698717832565308,-0.13795404136180878,-5.799011341878213e-05,1.0,0.4119112491607666,0.8435565233230591,0,0.0,2561138095,1984,965
827477062,4,408,19972,10930,526763251,526764,519615,314,-2673,10795,5000,222,34,-155,27.453125,0.03408496826887131,-0.0021366924047470093,1.0260279178619385,5.231253623962402,-10.280320167541504,-2.758251905441284,1.0403039455413818,-1.7281036376953125,3.9458625316619873,1529,1500,1480,1500,2000,1000,1000,1000,1503,1531,1456,1828,1786,1569,1446,730,718,21148,21340,0,,,,,1,1,1,1,1,1,1,0,1,1,0,0,stabilized_mix,0.41030174493789673,0.2129739224910736,0.3668115735054016,-0.018474306911230087,0.022636637091636658,0.21673691272735596,0.0,0.04639999940991402,0.018474306911230087,0.02376336231827736,0.09452144056558609,0.1565285176038742,0.09237153828144073,0.1188168078660965,0.0021498987916857004,0.03771171346306801,0.0,0.0,1.0,0.09237153828144073,0.1188168078660965,0.15283448994159698,0.0021498987916857004,0.03771171346306801,-0.0,0.09452144056558609,0.1565285176038742,0.15283448994159698,0.5416703224182129,-0.034950390458106995,13.192550659179688,0.04103575274348259,0.0026470154989510775,0.0034646366257220507,-0.01678149402141571,0.0660102441906929,-0.032837942242622375,0.06968940049409866,-0.049239546060562134,-0.17513753473758698,0.024070288985967636,-5.2873510867357254e-05,13.203712463378906,6.8662238121032715,6.337488651275635,1828.0,1786.0,-0.03439838066697121,-0.6033874154090881,0.016538672149181366,-0.049125511199235916,-0.01982467994093895,-0.031108766794204712,0.018852144479751587,0.08850783854722977,0.09130259603261948,-0.1794254332780838,-0.04814057797193527,0.05474880337715149,-0.07576322555541992,-5.2873532695230097e-05,1.0,0.225334033370018,0.8439595103263855,0,0.0,2752159228,1984,965
827477062,4,408,19973,10930,526767284,526768,519619,354,2627,7144,-4744,370,-191,-60,27.765625,0.03879493474960327,-0.011992089450359344,0.8993018865585327,4.547839164733887,-12.886481285095215,-0.7091202735900879,1.0359679460525513,-1.8033452033996582,3.946347713470459,1529,1500,1480,1500,2000,1000,1000,1000,1503,1527,1443,1831,1783,1569,1446,734,722,21148,21340,0,,,,,1,1,1,1,1,1,1,0,1,1,0,0,stabilized_mix,0.23096096515655518,0.15808561444282532,0.3991231620311737,-0.01713581010699272,0.0233551524579525,0.21793395280838013,0.0,0.04639999940991402,0.01713581010699272,0.023044846951961517,0.08783330768346786,0.1529417484998703,0.0856790542602539,0.11522423475980759,0.0021542529575526714,0.037717513740062714,0.0,0.0,1.0,0.0856790542602539,0.11522423475980759,0.15283448994159698,0.0021542529575526714,0.037717513740062714,-0.0,0.08783330768346786,0.1529417484998703,0.15283448994159698,0.5495404005050659,-0.03820711374282837,13.19205093383789,0.041632864624261856,0.0028937046881765127,0.006340848281979561,-0.01440622378140688,0.08275458961725235,-0.02854759618639946,0.08916615694761276,-0.04283517599105835,-0.17515446245670319,0.0061882417649030685,-5.91381685808301e-05,13.203546524047852,6.897464275360107,6.306082725524902,1831.0,1783.0,-0.03446804732084274,-0.6034802198410034,0.013027417473495007,-0.0662810206413269,-0.01981845684349537,-0.026707716286182404,0.03450464829802513,0.08853954076766968,0.0793747678399086,-0.22491152584552765,-0.012376483529806137,0.04763354733586311,-0.09691529721021652,-5.913817585678771e-05,1.0,0.28816288709640503,0.8439489006996155,0,0.0,3242296085,1984,965
827477062,4,408,19974,10930,526771317,526772,519623,318,-1193,5754,373,434,126,-251,27.484375,-0.10030914843082428,0.06218694522976875,0.9804298281669617,5.699998378753662,-11.041356086730957,1.9129854440689087,0.9970743060112,-1.824031114578247,3.9440207481384277,1529,1500,1480,1500,2000,1000,1000,1000,1503,1535,1452,1834,1780,1569,1446,738,726,21148,21340,0,,,,,1,1,1,1,1,1,1,0,1,1,0,0,stabilized_mix,0.12653931975364685,0.1671943962574005,0.31871724128723145,-0.015997571870684624,0.024186348542571068,0.21916380524635315,0.0,0.04639999940991402,0.015997571870684624,0.02221365086734295,0.08214616775512695,0.1487913727760315,0.07998786121606827,0.1110682561993599,0.002158308867365122,0.0377231165766716,0.0,0.0,1.0,0.07998786121606827,0.1110682561993599,0.15283448994159698,0.002158308867365122,0.0377231165766716,-0.0,0.08214616775512695,0.1487913727760315,0.15283448994159698,0.5461525321006775,-0.03437225520610809,13.192044258117676,0.041376516222953796,0.002603293163701892,0.0042531974613666534,-0.01857912912964821,0.07092616707086563,-0.03578367084264755,0.07503677159547806,-0.05467318743467331,-0.17507323622703552,-0.016693947836756706,-6.71185553073883e-05,13.203390121459961,6.9372878074646,6.266101837158203,1834.0,1780.0,-0.03453294187784195,-0.6035698652267456,0.020975381135940552,-0.0548601895570755,-0.020150700584053993,-0.034439072012901306,0.023132430389523506,0.08872584253549576,0.09948373585939407,-0.19270801544189453,0.03338789567351341,0.06078282743692398,-0.08154145628213882,-6.711851165164262e-05,1.0,0.24259406328201294,0.8439388871192932,0,0.0,2485250549,1984,965
827477062,4,408,19975,10930,526775352,526776,519627,336,-1498,9948,4450,173,71,-183,27.625,0.004558831453323364,-0.03775269538164139,1.0033724308013916,4.845343589782715,-8.977235794067383,-0.566902756690979,0.9480686187744141,-1.8464772701263428,3.946099042892456,1529,1500,1480,1500,2000,1000,1000,1000,1503,1529,1462,1832,1784,1569,1446,742,730,21148,21340,0,,,,,1,1,1,1,1,1,1,0,1,1,0,0,stabilized_mix,0.12040182203054428,0.23908856511116028,0.36411434412002563,-0.015136586502194405,0.024426409974694252,0.22043995559215546,0.0,0.04639999940991402,0.015136586502194405,0.021973589435219765,0.07784506678581238,0.14759661257266998,0.07568293064832687,0.10986794531345367,0.002162136835977435,0.03772866725921631,0.0,0.0,1.0,0.07568293064832687,0.10986794531345367,0.1408124566078186,0.002162136835977435,0.03772866725921631,-0.0,0.07784506678581238,0.14759661257266998,0.1408124566078186,0.5458816885948181,-0.02458949387073517,13.20844841003418,0.04130471497774124,0.0018600589828565717,0.0018132117111235857,-0.015158833004534245,0.0575517863035202,-0.030378786846995354,0.05940934270620346,-0.04547650367021561,-0.17514578998088837,0.00494715990498662,-5.956948734819889e-05,13.219747543334961,6.907721042633057,6.312026023864746,1832.0,1784.0,-0.03459418937563896,-0.6036586761474609,0.014941534958779812,-0.04220302030444145,-0.019566427916288376,-0.028136324137449265,0.009884430095553398,0.08826066553592682,0.08456719666719437,-0.1566823273897171,-0.00989431980997324,0.050630152225494385,-0.06469219923019409,-5.9569520090008155e-05,1.0,0.19213910400867462,0.8449844717979431,0,0.0,2649886482,1984,965
827477062,4,408,19976,10930,526779385,526780,519631,336,1189,7222,-848,360,-3,-10,27.625,-0.05034232884645462,-0.003229396417737007,0.9178604483604431,3.581493377685547,-10.761021614074707,1.797436237335205,0.9480528235435486,-1.9492356777191162,3.9551165103912354,1529,1500,1480,1500,2000,1000,1000,1000,1503,1522,1454,1835,1781,1569,1446,746,734,21148,21340,0,,,,,1,1,1,1,1,1,1,0,1,1,0,0,stabilized_mix,-0.0912003442645073,0.1740839183330536,0.35254278779029846,-0.015040547586977482,0.02519945241510868,0.22152750194072723,0.0,0.04639999940991402,0.015040547586977482,0.021200546994805336,0.07736863195896149,0.14373674988746643,0.07520274072885513,0.10600273311138153,0.002165890531614423,0.0377340093255043,0.0,0.0,1.0,0.07520274072885513,0.10600273311138153,0.1408124566078186,0.002165890531614423,0.0377340093255043,-0.0,0.07736863195896149,0.14373674988746643,0.1408124566078186,0.568584680557251,-0.02980700135231018,13.20739459991455,0.043023914098739624,0.002254749881103635,0.003447858616709709,-0.011084201745688915,0.06897275894880295,-0.022452428936958313,0.07233792543411255,-0.033808670938014984,-0.1754605621099472,-0.015685589984059334,-6.690120790153742e-05,13.2196626663208,6.944336891174316,6.275324821472168,1835.0,1781.0,-0.034654248505830765,-0.6037441492080688,0.007923806086182594,-0.053230710327625275,-0.019299067556858063,-0.020572124049067497,0.018790416419506073,0.08820338547229767,0.06250885128974915,-0.18781526386737823,0.03137117996811867,0.03764524683356285,-0.07878486067056656,-6.69011496938765e-05,1.0,0.23388823866844177,0.8449790477752686,0,0.0,3328503657,1985,966
827477062,4,408,19977,10930,526783418,526784,519635,318,-1288,8336,457,264,141,-151,27.484375,-0.08004876226186752,0.06101400405168533,1.0250030755996704,4.263760566711426,-7.053103446960449,3.8780698776245117,0.9137300848960876,-1.969280481338501,3.960744619369507,1529,1500,1482,1500,2000,1000,1000,1000,1505,1526,1472,1838,1779,1569,1446,750,738,21148,21340,0,,,,,1,1,1,1,1,1,1,0,1,1,0,0,stabilized_mix,-0.12089413404464722,0.18755918741226196,0.2616111636161804,-0.014768100343644619,0.025388086214661598,0.22256845235824585,0.0,0.04639999940991402,0.014768100343644619,0.02101191319525242,0.0760100707411766,0.14279887080192566,0.07384049892425537,0.10505956411361694,0.002169571118429303,0.03773931413888931,0.0,0.0,1.0,0.07384049892425537,0.10505956411361694,0.13166818022727966,0.002169571118429303,0.03773931413888931,-0.0,0.0760100707411766,0.14279887080192566,0.13166818022727966,0.5717127919197083,-0.02325454354286194,13.21975040435791,0.04321993887424469,0.001757431193254888,-0.0009407608886249363,-0.013562535867094994,0.04515533149242401,-0.026706822216510773,0.04398087412118912,-0.040656447410583496,-0.1756570190191269,-0.0338425450026989,-7.332488894462585e-05,13.232128143310547,6.9826884269714355,6.249439716339111,1838.0,1779.0,-0.03471313789486885,-0.603829026222229,0.012122810818254948,-0.02940005250275135,-0.019261496141552925,-0.02519865334033966,-0.005128974094986916,0.0882127434015274,0.07441665977239609,-0.12309987843036652,0.0676850900053978,0.04530787095427513,-0.047959037125110626,-7.332484528888017e-05,1.0,0.14227792620658875,0.8457757830619812,0,0.0,531225790,1985,966
827477062,4,408,19978,10930,526787450,526788,519639,332,1409,10082,-1362,93,-27,-232,27.59375,0.04753725230693817,-0.0643661767244339,1.0065839290618896,4.584994316101074,-6.2742462158203125,0.4797430634498596,0.8577461838722229,-1.989528775215149,3.9691216945648193,1529,1500,1482,1500,2000,1000,1000,1000,1505,1527,1476,1834,1783,1569,1446,754,742,21148,21340,0,,,,,1,1,1,1,1,1,1,0,1,1,0,0,stabilized_mix,-0.10829490423202515,0.2700740396976471,0.2919709086418152,-0.015137082897126675,0.026294296607375145,0.22353005409240723,0.0,0.04639999940991402,0.015137082897126675,0.020105702802538872,0.07785874605178833,0.13827292621135712,0.07568541169166565,0.10052851587533951,0.002173335524275899,0.03774440661072731,0.0,0.0,1.0,0.07568541169166565,0.10052851587533951,0.13166818022727966,0.002173335524275899,0.03774440661072731,-0.0,0.07785874605178833,0.13827292621135712,0.13166818022727966,0.5785030722618103,-0.016696810722351074,13.219395637512207,0.043733786791563034,0.0012618456967175007,-0.0019090853165835142,-0.01414496824145317,0.040169887244701385,-0.028717773035168648,0.03822845220565796,-0.04291427880525589,-0.17594942450523376,-0.004186547826975584,-6.304762791842222e-05,13.23205852508545,6.931267261505127,6.300790786743164,1834.0,1783.0,-0.03477336838841438,-0.603910505771637,0.013980473391711712,-0.02432946115732193,-0.019261490553617477,-0.02628016471862793,-0.010416671633720398,0.08836763352155685,0.08002324402332306,-0.10950625687837601,0.008373095653951168,0.047823838889598846,-0.041685231029987335,-6.304758426267654e-05,1.0,0.13883242011070251,0.8457713723182678,0,0.0,1639038079,1985,966
827477062,4,408,19979,10930,526791483,526792,519643,322,2628,3989,1209,268,43,-48,27.515625,-0.03569021075963974,-0.0283176489174366,0.8956062197685242,3.381943464279175,-7.541879177093506,2.3714659214019775,0.8463448286056519,-2.030465841293335,3.981860399246216,1529,1500,1482,1500,2000,1000,1000,1000,1505,1520,1470,1836,1781,1569,1446,758,746,21148,21340,0,,,,,1,1,1,1,1,1,1,0,1,1,0,0,stabilized_mix,-0.17467360198497772,0.21495264768600464,0.2743168771266937,-0.015568599104881287,0.027210231870412827,0.22430948913097382,0.0,0.04639999940991402,0.015568599104881287,0.01918976753950119,0.08002019673585892,0.13369809091091156,0.07784299552440643,0.09594883769750595,0.0021771977189928293,0.03774925693869591,0.0,0.0,1.0,0.07784299552440643,0.09594883769750595,0.13166818022727966,0.0021771977189928293,0.03774925693869591,-0.0,0.08002019673585892,0.13369809091091156,0.13166818022727966,0.5904991030693054,-0.02052845060825348,13.218795776367188,0.044641491025686264,0.0015514258993789554,-0.0006986797670833766,-0.010223733261227608,0.048271216452121735,-0.021182099357247353,0.04746108502149582,-0.03165630251169205,-0.17639409005641937,-0.020694943144917488,-6.898120045661926e-05,13.23199462890625,6.960903644561768,6.271091461181641,1836.0,1781.0,-0.03483516350388527,-0.6039881110191345,0.007248435169458389,-0.03195623308420181,-0.019101900979876518,-0.01899453066289425,-0.0038076937198638916,0.08841463178396225,0.059026047587394714,-0.13163062930107117,0.041389886289834976,0.03528308868408203,-0.05176696926355362,-6.898115680087358e-05,1.0,0.15352632105350494,0.8457672595977783,0,0.0,2008794080,1985,966
827477062,4,408,19981,10931,526799550,526800,519651,328,589,11427,-2702,18,-14,-184,27.5625,0.04887644201517105,-0.05748721584677696,1.0200393199920654,3.3727989196777344,-4.118466377258301,1.3551106452941895,0.7658377885818481,-2.007878541946411,4.003796100616455,1529,1500,1482,1500,2000,1000,1000,1000,1505,1520,1486,1836,1782,1506,1446,2,754,21149,21340,1,90.53999999999999,0.54,,,1,1,1,1,1,1,1,0,1,1,0,0,stabilized_mix,-0.061966948211193085,0.2995690703392029,0.22839821875095367,-0.015533572062849998,0.028402715921401978,0.2257770299911499,0.0,0.04639999940991402,0.015533572062849998,0.01799728348851204,0.07985275983810425,0.12774506211280823,0.07766786217689514,0.0899864137172699,0.0021848976612091064,0.03775864839553833,0.0,0.0,1.0,0.07766786217689514,0.0899864137172699,0.12439443171024323,0.0021848976612091064,0.03775864839553833,-0.0,0.07985275983810425,0.12774506211280823,0.12439443171024323,0.584907591342926,-0.010238677263259888,13.228896141052246,0.044185612350702286,0.0007732075173407793,-0.00459354929625988,-0.009967271238565445,0.02633291482925415,-0.02111019194126129,0.021673453971743584,-0.031157758086919785,-0.17715980112552643,-0.011825570836663246,-6.614485755562782e-05,13.24182415008545,6.95163631439209,6.290187835693359,1836.0,1782.0,-0.0349583625793457,-0.6041383743286133,0.007216005586087704,-0.010185967199504375,-0.018938327208161354,-0.018531963229179382,-0.025078076869249344,0.08859102427959442,0.05886644497513771,-0.07188079506158829,0.023651141673326492,0.03475186228752136,-0.02366618439555168,-6.614487938350067e-05,1.0,0.10081012547016144,0.8463955521583557,0,0.0,2779663085,1985,966
827477062,4,408,19993,10942,526847944,526848,519699,312,4117,7127,-1071,-212,-188,-3,27.4375,0.06020202115178108,-0.09311582148075104,0.9206410050392151,1.9920969009399414,5.756264686584473,2.8813037872314453,0.3194933831691742,-1.8373748064041138,4.238534450531006,1529,1500,1482,1500,2000,1000,1000,1000,1505,1511,1533,1840,1781,1506,1424,50,28,21149,21341,3,90.53999999999999,0.54,83.16,-6.84,1,1,1,1,1,1,1,0,1,1,0,0,stabilized_mix,-0.17906033992767334,0.364785373210907,0.1922796368598938,-0.015160259790718555,0.03892754763364792,0.22973309457302094,0.0,0.04639999940991402,0.015160259790718555,0.007472451776266098,0.07802841812372208,0.07516048848628998,0.0758012980222702,0.03736225888133049,0.002227123361080885,0.037798233330249786,0.0,0.0,1.0,0.0758012980222702,0.03736225888133049,0.09733804315328598,0.002227123361080885,0.037798233330249786,-0.0,0.07802841812372208,0.07516048848628998,0.09733804315328598,0.5396120548248291,0.020600728690624237,13.267048835754395,0.04065069556236267,-0.0015514899278059602,-0.015336199663579464,-0.0048020752146840096,-0.03669685870409012,-0.01243362296372652,-0.052127741277217865,-0.01700679585337639,-0.18535371124744415,-0.025144118815660477,-7.367425132542849e-05,13.278035163879395,7.007388591766357,6.270646095275879,1840.0,1781.0,-0.03563397377729416,-0.6047717332839966,0.0024834752548485994,0.05205700173974037,-0.018653016537427902,-0.008951688185334206,-0.08398789912462234,0.09227987378835678,0.03476864844560623,0.10046576708555222,0.05028823763132095,0.01902257651090622,0.05707244575023651,-7.367423677351326e-05,1.0,0.16861383616924286,0.8487101197242737,0,0.0,1313819684,1985,966
827477062,4,408,19994,10942,526851978,526852,519703,328,-1801,7182,-4862,-247,414,-121,27.5625,-0.03607485443353653,0.07523585110902786,0.9905114769935608,4.704538822174072,7.085392475128174,11.074997901916504,0.3002242147922516,-1.8625036478042603,4.269286155700684,1529,1500,1482,1500,2000,1000,1000,1000,1505,1527,1540,1851,1771,1506,1424,54,32,21149,21341,3,90.53999999999999,0.54,83.16,-6.84,1,1,1,1,1,1,1,0,1,1,0,0,stabilized_mix,-0.3065201938152313,0.3038802146911621,0.13549579679965973,-0.015346325002610683,0.039274539798498154,0.23011989891529083,0.0,0.04639999940991402,0.015346325002610683,0.007125459611415863,0.07896259427070618,0.07342725992202759,0.0767316222190857,0.035627298057079315,0.0022309739142656326,0.03779996186494827,0.0,0.0,1.0,0.0767316222190857,0.035627298057079315,0.09409980475902557,0.0022309739142656326,0.03779996186494827,-0.0,0.07896259427070618,0.07342725992202759,0.09409980475902557,0.5467215776443481,0.022521860897541046,13.271178245544434,0.041172876954078674,-0.0016956108156591654,-0.016973242163658142,-0.013473852537572384,-0.04519367963075638,-0.029355332255363464,-0.06292551010847092,-0.04175660014152527,-0.18642714619636536,-0.09664759039878845,-9.907619096338749e-05,13.282453536987305,7.136607646942139,6.145845413208008,1851.0,1771.0,-0.03569558262825012,-0.6047993898391724,0.018666481599211693,0.0613725483417511,-0.01776575855910778,-0.025128792971372604,-0.09291476011276245,0.09265541285276413,0.08210968971252441,0.12366342544555664,0.1932951807975769,0.046710435301065445,0.06885220855474472,-9.907615458359942e-05,1.0,0.20349609851837158,0.8489925265312195,0,0.0,1873826721,1985,966
827477062,4,408,19995,10942,526856010,526856,519707,328,-1375,9708,6696,-294,286,-230,27.5625,-0.08782966434955597,-0.06552815437316895,1.0231080055236816,3.99202299118042,7.2586894035339355,3.9487082958221436,0.22114989161491394,-1.7848926782608032,4.285155296325684,1529,1500,1482,1500,2000,1000,1000,1000,1505,1523,1540,1842,1779,1506,1424,58,36,21149,21341,3,90.53999999999999,0.54,83.16,-6.84,1,1,1,1,1,1,1,0,1,1,0,0,stabilized_mix,-0.17502500116825104,0.4152303636074066,0.17407119274139404,-0.01587013714015484,0.04063453897833824,0.23064154386520386,0.0,0.04639999940991402,0.01587013714015484,0.005765460431575775,0.0815856009721756,0.06662879884243011,0.07935068756341934,0.028827302157878876,0.00223491620272398,0.03780149668455124,0.0,0.0,1.0,0.07935068756341934,0.028827302157878876,0.09409980475902557,0.00223491620272398,0.03780149668455124,-0.0,0.0815856009721756,0.06662879884243011,0.09409980475902557,0.5316500663757324,0.03126777336001396,13.271734237670898,0.04003741964697838,-0.0023540749680250883,-0.016860591247677803,-0.010978740639984608,-0.04628903418779373,-0.02490919455885887,-0.06339529901742935,-0.035496048629283905,-0.18698108196258545,-0.03445897996425629,-7.750396616756916e-05,13.282416343688965,7.0287275314331055,6.253687858581543,1842.0,1779.0,-0.03575865924358368,-0.6048239469528198,0.015268685296177864,0.062032539397478104,-0.01793782413005829,-0.02047262340784073,-0.09231619536876678,0.09300680458545685,0.06967394798994064,0.12668803334236145,0.06891795992851257,0.03971092402935028,0.06938166171312332,-7.750401709927246e-05,1.0,0.20501188933849335,0.8489901423454285,0,0.0,1156976835,1985,966
827477062,4,408,19996,10942,526860044,526860,519711,328,5370,5341,-1391,-260,-276,44,27.5625,0.050898440182209015,-0.07771001011133194,0.9124918580055237,1.9499117136001587,7.933218479156494,2.122555732727051,0.22069475054740906,-1.7641873359680176,4.313187122344971,1529,1500,1482,1500,2000,1000,1000,1000,1505,1511,1544,1840,1781,1506,1424,62,40,21149,21341,3,90.53999999999999,0.54,83.16,-6.84,1,1,1,1,1,1,1,0,1,1,0,0,stabilized_mix,-0.19289425015449524,0.3131915330886841,0.19640669226646423,-0.016620786860585213,0.04181867837905884,0.23105861246585846,0.0,0.04639999940991402,0.016620786860585213,0.004581321030855179,0.08534296602010727,0.06070931628346443,0.08310393244028091,0.022906605154275894,0.002239030785858631,0.03780271112918854,0.0,0.0,1.0,0.08310393244028091,0.022906605154275894,0.09409980475902557,0.002239030785858631,0.03780271112918854,-0.0,0.08534296602010727,0.06070931628346443,0.09409980475902557,0.5314054489135742,0.022860009223222733,13.271753311157227,0.0400189608335495,-0.00172107492107898,-0.017706677317619324,-0.004876377061009407,-0.050567395985126495,-0.012165176682174206,-0.06836394965648651,-0.016810255125164986,-0.18795958161354065,-0.01852279342710972,-7.22687691450119e-05,13.2824068069458,7.002547264099121,6.27985954284668,1840.0,1781.0,-0.0358244925737381,-0.6048433780670166,0.0036041024141013622,0.06656864285469055,-0.01854744926095009,-0.00909573957324028,-0.09700261801481247,0.09355024993419647,0.03403237834572792,0.13846078515052795,0.03704558685421944,0.018810592591762543,0.07484869658946991,-7.226882735267282e-05,1.0,0.22105816006660461,0.8489895462989807,0,0.0,1087855333,1985,966
827477062,4,408,19997,10942,526863098,526864,519714,320,-3068,8873,4869,-217,447,-249,27.5,-0.15286897122859955,0.018874995410442352,1.0350509881973267,4.7341742515563965,6.921515464782715,5.713963508605957,0.18102963268756866,-1.76920485496521,4.3204450607299805,1529,1500,1482,1500,2000,1000,1000,1000,1505,1527,1539,1845,1777,1506,1424,66,44,21149,21341,3,90.53999999999999,0.54,83.16,-6.84,1,1,1,1,1,1,1,0,1,1,0,0,stabilized_mix,-0.2649487257003784,0.34219396114349365,0.14796000719070435,-0.016322283074259758,0.041826993227005005,0.2314285933971405,0.0,0.04639999940991402,0.016322283074259758,0.004573006182909012,0.08385448902845383,0.06066896393895149,0.08161141723394394,0.02286503091454506,0.0022430685348808765,0.03780393302440643,0.0,0.0,1.0,0.08161141723394394,0.02286503091454506,0.09066496789455414,0.0022430685348808765,0.03780393302440643,-0.0,0.08385448902845383,0.06066896393895149,0.09066496789455414,0.5306898355484009,0.032115738838911057,13.276443481445312,0.03995102271437645,-0.0024170668330043554,-0.0164339542388916,-0.013262930326163769,-0.04413187503814697,-0.029530305415391922,-0.06096969544887543,-0.04225514084100723,-0.18821293115615845,-0.04986373707652092,-8.332682773470879e-05,13.287084579467773,7.060176372528076,6.226907730102539,1845.0,1777.0,-0.035889096558094025,-0.6048629283905029,0.02032131515443325,0.060249585658311844,-0.017703797668218613,-0.02474280819296837,-0.08999770879745483,0.09363734722137451,0.08262692391872406,0.12080322951078415,0.09972747415304184,0.0472862534224987,0.06673820316791534,-8.33268350106664e-05,1.0,0.19718343019485474,0.8492885231971741,0,0.0,906318518,1986,967
827477062,4,408,19998,10942,526867156,526868,519718,344,3935,10067,667,-232,-246,-9,27.6875,0.02604329213500023,-0.13073769211769104,0.9638816714286804,1.4613986015319824,6.765568733215332,-1.4477894306182861,0.1670931875705719,-1.7382656335830688,4.338673114776611,1529,1500,1482,1500,2000,1000,1000,1000,1505,1508,1538,1836,1786,1506,1424,70,48,21149,21341,3,90.53999999999999,0.54,83.16,-6.84,1,1,1,1,1,1,1,0,1,1,0,0,stabilized_mix,-0.19606928527355194,0.31917810440063477,0.18928706645965576,-0.01714029535651207,0.04279644042253494,0.23181745409965515,0.0,0.04639999940991402,0.01714029535651207,0.003603558987379074,0.08794879168272018,0.055822692811489105,0.08570148050785065,0.01801779493689537,0.0022473123390227556,0.037804897874593735,0.0,0.0,1.0,0.08570148050785065,0.01801779493689537,0.09066496789455414,0.0022473123390227556,0.037804897874593735,-0.0,0.08794879168272018,0.055822692811489105,0.09066496789455414,0.5286216139793396,0.028277061879634857,13.276544570922852,0.03979518264532089,-0.0021281614899635315,-0.01630212552845478,-0.002925346838310361,-0.0431012287735939,-0.009113995358347893,-0.0593949630856514,-0.012174763716757298,-0.18884921073913574,0.012634346261620522,-6.167520768940449e-05,13.287094116210938,6.951923370361328,6.335171222686768,1836.0,1786.0,-0.03595699742436409,-0.6048783659934998,0.0011980518465861678,0.05924063175916672,-0.01869308203458786,-0.005457951687276363,-0.08934067189693451,0.09409556537866592,0.025506217032670975,0.11808145046234131,-0.025268692523241043,0.013628385961055756,0.0650680735707283,-6.167520041344687e-05,1.0,0.19209139049053192,0.8492891192436218,0,0.0,1098402334,1986,967
827477062,4,408,19999,10942,526871163,526872,519722,342,79,6632,-6006,-154,156,-52,27.671875,0.02668534219264984,0.07684429734945297,1.0019408464431763,3.9354984760284424,5.058330535888672,6.565286159515381,0.15326164662837982,-1.7508854866027832,4.353715419769287,1529,1500,1482,1500,2000,1000,1000,1000,1505,1522,1530,1846,1776,1506,1424,74,52,21149,21341,3,90.53999999999999,0.54,83.16,-6.84,1,1,1,1,1,1,1,0,1,1,0,0,stabilized_mix,-0.2777879238128662,0.22930890321731567,0.08799554407596588,-0.01795646734535694,0.04393677040934563,0.2320774495601654,0.0,0.04639999940991402,0.01795646734535694,0.00246322900056839,0.09203407168388367,0.050121720880270004,0.08978233486413956,0.01231614500284195,0.0022517391480505466,0.037805575877428055,0.0,0.0,1.0,0.08978233486413956,0.01231614500284195,0.09066496789455414,0.0022517391480505466,0.037805575877428055,-0.0,0.09203407168388367,0.050121720880270004,0.09066496789455414,0.5365378856658936,0.023255176842212677,13.276246070861816,0.04039139300584793,-0.0017502076225355268,-0.01440862100571394,-0.010880469344556332,-0.032238736748695374,-0.024547267705202103,-0.047022461891174316,-0.03497353196144104,-0.18937428295612335,-0.05729293078184128,-8.633348625153303e-05,13.287103652954102,7.07521915435791,6.211884498596191,1846.0,1776.0,-0.036027826368808746,-0.6048892140388489,0.016817692667245865,0.049297504127025604,-0.018079057335853577,-0.020296458154916763,-0.07892534136772156,0.0944036915898323,0.06868740916252136,0.08828452229499817,0.11458586156368256,0.039140455424785614,0.051497526466846466,-8.63335226313211e-05,1.0,0.15211059153079987,0.8492897748947144,0,0.0,546081799,1986,967
827477062,4,408,20000,10942,526875195,526876,519726,328,-2369,9971,5757,-147,318,-238,27.5625,-0.12599357962608337,-0.02535497397184372,1.0644235610961914,3.8954083919525146,4.805532455444336,2.529940128326416,0.0868658721446991,-1.700476050376892,4.355974197387695,1529,1500,1482,1500,2000,1000,1000,1000,1505,1522,1528,1841,1781,1506,1424,78,56,21149,21341,3,90.53999999999999,0.54,83.16,-6.84,1,1,1,1,1,1,1,0,1,1,0,0,stabilized_mix,-0.22995851933956146,0.34032195806503296,0.0927416980266571,-0.01782950386404991,0.04360026866197586,0.23237939178943634,0.0,0.04639999940991402,0.01782950386404991,0.002799730747938156,0.09140368551015854,0.051805008202791214,0.08914752304553986,0.01399865373969078,0.002256163628771901,0.03780635446310043,0.0,0.0,1.0,0.08914752304553986,0.01399865373969078,0.08710227161645889,0.002256163628771901,0.03780635446310043,-0.0,0.09140368551015854,0.051805008202791214,0.08710227161645889,0.5243198871612549,0.04098658263683319,13.281570434570312,0.03945676237344742,-0.0030835624784231186,-0.013857347890734673,-0.009782714769244194,-0.030613675713539124,-0.02428840845823288,-0.044620826840400696,-0.03390933573246002,-0.189453125,-0.02207789197564125,-7.403583731502295e-05,13.29197883605957,7.01616907119751,6.275810241699219,1841.0,1781.0,-0.03609861806035042,-0.6049016714096069,0.015986042097210884,0.04719429090619087,-0.01814592070877552,-0.018259448930621147,-0.07594238221645355,0.09450779855251312,0.06798770278692245,0.08387236297130585,0.0441557839512825,0.03796317055821419,0.04888948053121567,-7.403585186693817e-05,1.0,0.14434882998466492,0.8496013879776001,0,0.0,3190229004,1986,967
827477062,4,408,20001,10942,526879202,526880,519730,336,5061,9285,808,-202,-284,36,27.625,0.029339076951146126,-0.10240627080202103,0.9345218539237976,1.3082690238952637,4.946228981018066,-0.9951145648956299,0.09406091272830963,-1.6959011554718018,4.372713088989258,1529,1500,1482,1500,2000,1000,1000,1000,1505,1506,1529,1837,1785,1506,1424,0,60,21150,21341,3,90.53999999999999,0.54,83.16,-6.84,1,1,1,1,1,1,1,0,1,1,0,0,stabilized_mix,-0.20397472381591797,0.2503807544708252,0.13626065850257874,-0.01864624209702015,0.0444304384291172,0.2324753701686859,0.0,0.04639999940991402,0.01864624209702015,0.001969560980796814,0.09549199044704437,0.04765469580888748,0.0932312086224556,0.00984780490398407,0.002260782988741994,0.03780689090490341,0.0,0.0,1.0,0.0932312086224556,0.00984780490398407,0.08710227161645889,0.002260782988741994,0.03780689090490341,-0.0,0.09549199044704437,0.04765469580888748,0.08710227161645889,0.5284148454666138,0.03319786489009857,13.281453132629395,0.039764948189258575,-0.0024975845590233803,-0.014190508984029293,-0.0017796559259295464,-0.03149331361055374,-0.008157654665410519,-0.04567544162273407,-0.010003224015235901,-0.19003742933273315,0.008684013038873672,-6.34737079963088e-05,13.292003631591797,6.963370323181152,6.3286333084106445,1837.0,1785.0,-0.0361725278198719,-0.6049102544784546,0.0007948739221319556,0.048418447375297546,-0.018719181418418884,-0.0033195812720805407,-0.07780256867408752,0.09478497505187988,0.022833602502942085,0.08632797747850418,-0.017368026077747345,0.011201132088899612,0.05007161945104599,-6.347369344439358e-05,1.0,0.1477612853050232,0.8496029376983643,0,0.0,583342450,1986,967
827477062,4,408,20013,10953,526927596,526928,519778,328,-672,6092,-4757,-149,221,38,27.5625,0.06172417849302292,0.123864084482193,1.0066274404525757,0.7993332147598267,5.752150535583496,4.21425199508667,0.005269944667816162,-1.472672462463379,4.409276485443115,1529,1500,1482,1500,2000,1000,1000,1000,1505,1502,1533,1844,1779,1506,1478,48,20,21150,21342,3,90.53999999999999,0.54,88.02,-1.98,1,1,1,1,1,1,1,0,1,1,0,0,stabilized_mix,0.2253190577030182,0.013023898005485535,-0.20057423412799835,-0.0260763019323349,0.04404883831739426,0.2259638011455536,0.0,0.04639999940991402,0.0260763019323349,0.00235116109251976,0.13271619379520416,0.04956807941198349,0.1303815096616745,0.0117558054625988,0.0023346857633441687,0.03781227394938469,0.0,0.0,1.0,0.1303815096616745,0.0117558054625988,0.07493198662996292,0.0023346857633441687,0.03781227394938469,-0.0,0.13271619379520416,0.04956807941198349,0.07493198662996292,0.528047502040863,0.05238795280456543,13.298664093017578,0.03968596085906029,-0.003936217166483402,-0.015108499675989151,0.001180445309728384,-0.036579422652721405,-0.004977044649422169,-0.051749035716056824,-0.0034646366257220507,-0.1913137286901474,-0.036776285618543625,-7.983145769685507e-05,13.309247016906738,7.053781032562256,6.255466461181641,1844.0,1779.0,-0.0373549722135067,-0.604996383190155,-0.0038241257425397635,0.05734196677803993,-0.018940318375825882,0.002203812589868903,-0.08294607698917389,0.09549304097890854,0.013950996100902557,0.10039396584033966,0.07355257123708725,0.003884099656715989,0.0567987784743309,-7.983150135260075e-05,1.0,0.16738861799240112,0.850705087184906,0,0.0,520904445,1986,967
827477062,4,408,20014,10953,526931719,526932,519782,338,-3582,10093,5830,-174,176,-105,27.640625,-0.0006832033395767212,-0.027846194803714752,1.080824851989746,0.055771589279174805,4.911442279815674,-1.0020439624786377,-0.04916539043188095,-1.3270710706710815,4.402318477630615,1529,1500,1482,1500,2000,1000,1000,1000,1505,1497,1528,1838,1786,1506,1478,52,24,21150,21342,3,90.53999999999999,0.54,88.02,-1.98,1,1,1,1,1,1,1,0,1,1,0,0,stabilized_mix,0.44267088174819946,0.18185624480247498,-0.1531616449356079,-0.02312854491174221,0.04296278953552246,0.22520741820335388,0.0,0.04639999940991402,0.02312854491174221,0.003437209874391556,0.11798346042633057,0.05499904230237007,0.1156427264213562,0.01718604937195778,0.0023407312110066414,0.03781299293041229,0.0,0.0,1.0,0.1156427264213562,0.01718604937195778,0.07288581132888794,0.0023407312110066414,0.03781299293041229,-0.0,0.11798346042633057,0.05499904230237007,0.07288581132888794,0.4748041033744812,0.07399728894233704,13.30314826965332,0.03567596524953842,-0.0055587925016880035,-0.013294089585542679,0.004761328920722008,-0.031224869191646576,-0.0003463438479229808,-0.044527359306812286,0.004346674308180809,-0.19107085466384888,0.008744482882320881,-6.381422281265259e-05,13.311824798583984,6.974983215332031,6.336841106414795,1838.0,1786.0,-0.03745169937610626,-0.6050078868865967,-0.009347433224320412,0.04966690391302109,-0.019122976809740067,0.008899586275219917,-0.0730019360780716,0.09542886912822723,0.0009733978658914566,0.08572083711624146,-0.017488965764641762,-0.004874459933489561,0.048887863755226135,-6.38142300886102e-05,1.0,0.14404736459255219,0.85086989402771,0,0.0,1904009448,1986,967
827477062,4,408,20015,10953,526935658,526936,519786,332,6482,7353,-1218,-160,-376,179,27.59375,0.12937115132808685,-0.09703606367111206,0.917470395565033,-2.459312915802002,4.405650615692139,-1.7594234943389893,0.0002027079463005066,-1.2412583827972412,4.413715839385986,1529,1500,1482,1500,2000,1000,1000,1000,1505,1482,1526,1837,1787,1506,1478,56,28,21150,21342,3,90.53999999999999,0.54,88.02,-1.98,1,1,1,1,1,1,1,0,1,1,0,0,stabilized_mix,0.48700809478759766,0.04920105263590813,-0.05858859047293663,-0.021192600950598717,0.04294685274362564,0.22447577118873596,0.0,0.04639999940991402,0.021192600950598717,0.003453146666288376,0.10830917209386826,0.055079586803913116,0.10596300661563873,0.01726573333144188,0.002346163149923086,0.03781385347247124,0.0,0.0,1.0,0.10596300661563873,0.01726573333144188,0.07288581132888794,0.002346163149923086,0.03781385347247124,-0.0,0.10830917209386826,0.055079586803913116,0.07288581132888794,0.44171762466430664,0.06362918019294739,13.30418872833252,0.03318920359015465,-0.004779972601681948,-0.012332955375313759,0.012450401671230793,-0.02802029438316822,0.0153098339214921,-0.04042155295610428,0.0276583693921566,-0.19146868586540222,0.015353865921497345,-6.164016667753458e-05,13.31167221069336,6.96403694152832,6.347635269165039,1837.0,1787.0,-0.03753861039876938,-0.6050216555595398,-0.02449045144021511,0.04506971314549446,-0.01959913969039917,0.02327203005552292,-0.06769994646310806,0.0955938994884491,-0.042923107743263245,0.07689310610294342,-0.03070773184299469,-0.031012866646051407,0.044363994151353836,-6.164018850540742e-05,1.0,0.13076813519001007,0.8508601188659668,0,0.0,3430543473,1986,967
827477062,4,408,20016,10953,526939695,526940,519790,342,-4953,7367,-2173,-113,426,-2,27.671875,-0.07225945591926575,0.15957525372505188,1.036153793334961,0.5528708696365356,4.5919270515441895,6.264484405517578,0.017531849443912506,-1.244677186012268,4.416267395019531,1529,1500,1482,1500,2000,1000,1000,1000,1505,1500,1526,1847,1777,1506,1478,60,32,21150,21342,3,90.53999999999999,0.54,88.02,-1.98,1,1,1,1,1,1,1,0,1,1,0,0,stabilized_mix,0.29919159412384033,0.0033837631344795227,-0.15179330110549927,-0.019274841994047165,0.04316272586584091,0.22378002107143402,0.0,0.04639999940991402,0.019274841994047165,0.003237273544073105,0.09872529655694962,0.054001033306121826,0.09637421369552612,0.016186367720365524,0.002351081697270274,0.0378146655857563,0.0,0.0,1.0,0.09637421369552612,0.016186367720365524,0.07288581132888794,0.002351081697270274,0.0378146655857563,-0.0,0.09872529655694962,0.054001033306121826,0.07288581132888794,0.4293416738510132,0.059137213975191116,13.30446720123291,0.032259296625852585,-0.0044425721280276775,-0.01218674797564745,0.0023788667749613523,-0.029192347079515457,-0.0034406681079417467,-0.041435420513153076,-0.0006675207987427711,-0.19155776500701904,-0.054667938500642776,-8.617900311946869e-05,13.311524391174316,7.0866570472717285,6.224867343902588,1847.0,1777.0,-0.03761730715632439,-0.6050346493721008,-0.005890243221074343,0.04509933292865753,-0.018964530900120735,0.004445001482963562,-0.06691588461399078,0.09562820941209793,0.009649417363107204,0.0801442489027977,0.10933587700128555,0.0007489381823688745,0.045494310557842255,-8.617898856755346e-05,1.0,0.13405011594295502,0.8508507013320923,0,0.0,537846866,1986,967
827477062,4,408,20017,10953,526943728,526944,519794,332,-191,12846,4775,-215,-68,-19,27.59375,-0.022873423993587494,-0.10233987122774124,1.0925793647766113,-1.7608556747436523,5.04102087020874,-3.3853704929351807,-0.02415243536233902,-1.1684401035308838,4.4104485511779785,1529,1500,1482,1500,2000,1000,1000,1000,1505,1486,1528,1834,1789,1506,1478,64,36,21150,21342,3,90.53999999999999,0.54,88.02,-1.98,1,1,1,1,1,1,1,0,1,1,0,0,stabilized_mix,0.3480238616466522,0.149633526802063,-0.070026695728302,-0.016677100211381912,0.04208632931113243,0.22335049510002136,0.0,0.04639999940991402,0.016677100211381912,0.004313670098781586,0.08574085682630539,0.05938411504030228,0.08338549733161926,0.02156835049390793,0.0023553562350571156,0.03781576454639435,0.0,0.0,1.0,0.08338549733161926,0.02156835049390793,0.07288581132888794,0.0023553562350571156,0.03781576454639435,-0.0,0.08574085682630539,0.05938411504030228,0.07288581132888794,0.3945043981075287,0.0775330513715744,13.305326461791992,0.029641427099704742,-0.00582459382712841,-0.012263447977602482,0.01069111842662096,-0.032056570053100586,0.010961961932480335,-0.04441230744123459,0.021421782672405243,-0.1913546472787857,0.02954293042421341,-5.663407500833273e-05,13.311399459838867,6.938870429992676,6.37252950668335,1834.0,1789.0,-0.03768569976091385,-0.6050522327423096,-0.020877115428447723,0.0461571104824543,-0.019537068903446198,0.019983602687716484,-0.06732448935508728,0.09561443328857422,-0.03073272854089737,0.0879824087023735,-0.05908586084842682,-0.02401994913816452,0.048749834299087524,-5.663409683620557e-05,1.0,0.14367686212062836,0.8508427143096924,0,0.0,1645488070,1987,968
827477062,4,408,20018,10953,526947760,526948,519798,332,7827,4322,-3257,-106,-324,208,27.59375,0.05760132521390915,-0.0684218555688858,0.8919253945350647,-2.7369203567504883,3.5752193927764893,0.3449854850769043,0.027102194726467133,-1.1977808475494385,4.423354625701904,1529,1500,1482,1500,2000,1000,1000,1000,1505,1480,1521,1839,1784,1506,1478,68,40,21150,21342,3,90.53999999999999,0.54,88.02,-1.98,1,1,1,1,1,1,1,0,1,1,0,0,stabilized_mix,0.15305548906326294,0.023458408191800117,-0.008919529616832733,-0.015786105766892433,0.042099833488464355,0.22283071279525757,0.0,0.04639999940991402,0.015786105766892433,0.004300165921449661,0.0812898799777031,0.059317659586668015,0.07893052697181702,0.021500829607248306,0.0023593532387167215,0.03781682997941971,0.0,0.0,1.0,0.07893052697181702,0.021500829607248306,0.07288581132888794,0.0023593532387167215,0.03781682997941971,-0.0,0.0812898799777031,0.059317659586668015,0.07288581132888794,0.39526206254959106,0.06598157435655594,13.305313110351562,0.02969835139811039,-0.004956812597811222,-0.010628800839185715,0.013603282161056995,-0.02274005115032196,0.017040353268384933,-0.033360451459884644,0.030664008110761642,-0.1918051540851593,-0.003010566346347332,-6.818550173193216e-05,13.311346054077148,6.99660062789917,6.3147454261779785,1839.0,1784.0,-0.037749651819467545,-0.6050692796707153,-0.02672683633863926,0.03629797324538231,-0.019502107053995132,0.025425508618354797,-0.058340929448604584,0.09571881592273712,-0.04776827245950699,0.062399350106716156,0.006021132692694664,-0.03438164293766022,0.036613356322050095,-6.818550173193216e-05,1.0,0.10793431103229523,0.8508392572402954,0,0.0,2284093268,1987,968
827477062,4,408,20019,10953,526951816,526952,519802,328,-8020,7993,1989,-209,557,-36,27.5625,-0.1487095057964325,0.15648239850997925,1.0497623682022095,-0.14745032787322998,6.201496124267578,5.548518657684326,0.014966689050197601,-1.2021028995513916,4.420708656311035,1529,1500,1492,1500,2000,1000,1000,1000,1513,1496,1534,1846,1778,1506,1478,72,44,21150,21342,3,90.53999999999999,0.54,88.02,-1.98,1,1,1,1,1,1,1,0,1,1,0,0,stabilized_mix,0.02552732080221176,0.06267190724611282,-0.08546029031276703,-0.014519117772579193,0.041097238659858704,0.22245115041732788,0.0,0.04639999940991402,0.014519117772579193,0.005302760750055313,0.0749586671590805,0.06433181464672089,0.07259558886289597,0.026513803750276566,0.0023630759678781033,0.03781800717115402,0.0,0.0,1.0,0.07259558886289597,0.026513803750276566,0.07022581994533539,0.0023630759678781033,0.03781800717115402,-0.0,0.0749586671590805,0.06433181464672089,0.07022581994533539,0.3882398009300232,0.07630518078804016,13.309076309204102,0.029162785038352013,-0.005730818025767803,-0.01339235994964838,0.005430047400295734,-0.03942207247018814,0.0009167924290522933,-0.05281803011894226,0.006820216774940491,-0.19171278178691864,-0.04841995984315872,-8.40465072542429e-05,13.314956665039062,7.0777106285095215,6.237245559692383,1846.0,1778.0,-0.03780921548604965,-0.6050881147384644,-0.011959033086895943,0.05222918465733528,-0.019285498186945915,0.010151413269340992,-0.07356010377407074,0.09576684236526489,-0.0025734936352819204,0.10823652148246765,0.09683991968631744,-0.0076511395163834095,0.05799400806427002,-8.40464563225396e-05,1.0,0.17084065079689026,0.8510700464248657,0,0.0,2643197724,1987,968
827477062,4,408,20020,10953,526955825,526956,519806,326,216,15226,969,-256,-246,100,27.546875,0.048379771411418915,-0.12747374176979065,1.0669502019882202,-3.7142903804779053,6.211433410644531,-4.941745758056641,-0.011615201830863953,-1.1417779922485352,4.418973445892334,1529,1500,1492,1500,2000,1000,1000,1000,1513,1475,1534,1833,1791,1506,1478,76,48,21150,21342,3,90.53999999999999,0.54,88.02,-1.98,1,1,1,1,1,1,1,0,1,1,0,0,stabilized_mix,0.10239730775356293,0.164777934551239,0.02470589429140091,-0.014069804921746254,0.04118341952562332,0.22227482497692108,0.0,0.04639999940991402,0.014069804921746254,0.005216579884290695,0.0727156549692154,0.06390222907066345,0.07034902274608612,0.026082899421453476,0.002366631058976054,0.037819333374500275,0.0,0.0,1.0,0.07034902274608612,0.026082899421453476,0.07022581994533539,0.002366631058976054,0.037819333374500275,-0.0,0.0727156549692154,0.06390222907066345,0.07022581994533539,0.3711227476596832,0.082133948802948,13.309503555297852,0.02787681855261326,-0.006168599706143141,-0.013370788656175137,0.017095480114221573,-0.03951554745435715,0.023118751123547554,-0.05315838009119034,0.03979837894439697,-0.19165222346782684,0.04312486574053764,-5.198456346988678e-05,13.314929962158203,6.91738748550415,6.3975419998168945,1833.0,1791.0,-0.03786609694361687,-0.6051093339920044,-0.03344600647687912,0.05208823084831238,-0.020246362313628197,0.031957853585481644,-0.07337862253189087,0.09592379629611969,-0.0648265928030014,0.10840996354818344,-0.08624973148107529,-0.04463176056742668,0.058322906494140625,-5.1984570745844394e-05,1.0,0.17194205522537231,0.851068377494812,0,0.0,3522299639,1987,968
827477062,4,408,20021,10953,526959858,526960,519810,332,7016,4132,-3936,-73,-167,223,27.59375,0.04009821265935898,0.01908642053604126,0.8999401330947876,-3.156576633453369,3.9581503868103027,2.194700241088867,0.07382073998451233,-1.1653934717178345,4.4283223152160645,1529,1500,1500,1500,2000,1000,1000,1000,1520,1478,1523,1842,1782,1506,1478,80,52,21150,21342,3,90.53999999999999,0.54,88.02,-1.98,1,1,1,1,1,1,1,0,1,1,0,0,stabilized_mix,-0.030474212020635605,-0.04007963836193085,0.03802632540464401,-0.013923927210271358,0.041200533509254456,0.2220013588666916,0.0,0.04639999940991402,0.013923927210271358,0.005199465900659561,0.0719897523522377,0.06381794065237045,0.06961963325738907,0.025997329503297806,0.002370115602388978,0.03782061114907265,0.0,0.0,1.0,0.06961963325738907,0.025997329503297806,0.07022581994533539,0.002370115602388978,0.03782061114907265,-0.0,0.0719897523522377,0.06381794065237045,0.07022581994533539,0.3756234049797058,0.06223219633102417,13.309476852416992,0.02821476198732853,-0.004673886112868786,-0.010760626755654812,0.014703433029353619,-0.025172844529151917,0.019648119807243347,-0.035838790237903595,0.034474991261959076,-0.1919785588979721,-0.01915237307548523,-7.389578968286514e-05,13.314921379089355,7.026939392089844,6.2879815101623535,1842.0,1782.0,-0.03792184963822365,-0.6051297783851624,-0.0296939667314291,0.037407249212265015,-0.019644219428300858,0.02748623862862587,-0.059065647423267365,0.09582479298114777,-0.05509265512228012,0.06908275932073593,0.03830474615097046,-0.03866283595561981,0.039339348673820496,-7.389582606265321e-05,1.0,0.11595364660024643,0.8510677814483643,0,0.0,247845294,1987,968
827477062,4,408,20033,10964,527007247,527008,519857,328,-9419,9091,6103,-42,216,46,27.5625,-0.09055536985397339,0.04676404595375061,1.0626378059387207,-5.742673397064209,1.682265043258667,-3.6186394691467285,0.19653905928134918,-0.37873101234436035,4.4361572265625,1530,1500,1520,1500,2000,1000,1000,1000,1537,1462,1509,1835,1790,1506,1478,128,100,21150,21342,3,90.53999999999999,0.54,88.02,-1.98,1,1,1,1,1,1,1,0,1,1,0,0,stabilized_mix,0.3831990361213684,0.15338562428951263,0.06259086728096008,0.009360801428556442,0.0361684113740921,0.22276969254016876,0.0,0.04800000041723251,-0.009360801428556442,0.011831589043140411,-0.044425830245018005,0.09700711071491241,-0.04680400714278221,0.05915794521570206,0.0023781778290867805,0.03784916549921036,0.0,0.0,1.0,-0.04680400714278221,0.05915794521570206,0.05397138372063637,0.0023781778290867805,0.03784916549921036,-0.0,-0.044425830245018005,0.09700711071491241,0.05397138372063637,0.037864916026592255,0.09116038680076599,13.336923599243164,0.002839096589013934,-0.006835054140537977,-0.0028750135097652674,0.024362709373235703,-0.010693514719605446,0.03568779677152634,-0.013859745115041733,0.059994176030159,-0.1922520399093628,0.031578585505485535,-5.623570177704096e-05,13.337288856506348,6.949823379516602,6.387465953826904,1835.0,1790.0,-0.03805084526538849,-0.6055866479873657,-0.04917814955115318,0.006677208933979273,-0.01921561360359192,0.04562000185251236,-0.01578497141599655,0.09608149528503418,-0.10022855550050735,0.029361063614487648,-0.06315717101097107,-0.0673695057630539,0.015222041867673397,-5.6235705415019765e-05,1.0,0.19403034448623657,0.8524975180625916,0,0.00012000000424450263,3177231863,1987,968
827477062,4,408,20034,10964,527011280,527012,519861,324,10307,8179,-2133,-84,-727,441,27.53125,0.19426177442073822,-0.19639915227890015,0.8989633917808533,-9.905925750732422,0.7308496236801147,-7.871747016906738,0.2903812527656555,-0.30496537685394287,4.434915065765381,1530,1500,1520,1500,2000,1000,1000,1000,1537,1437,1505,1830,1795,1506,1478,132,104,21150,21342,3,90.53999999999999,0.54,88.02,-1.98,1,1,1,1,1,1,1,0,1,1,0,0,stabilized_mix,0.5090126991271973,0.02249564230442047,0.21681725978851318,0.0110315578058362,0.03589458018541336,0.22306758165359497,0.0,0.04800000041723251,-0.0110315578058362,0.012105420231819153,-0.052782248705625534,0.09837926924228668,-0.05515778809785843,0.060527101159095764,0.002375540789216757,0.03785216808319092,0.0,0.0,1.0,-0.05515778809785843,0.060527101159095764,0.05378898233175278,0.002375540789216757,0.03785216808319092,-0.0,-0.052782248705625534,0.09837926924228668,0.05378898233175278,0.009449269622564316,0.07206690311431885,13.33741569519043,0.0007084782118909061,-0.005403309594839811,-0.0017053538467735052,0.037039615213871,-0.004658264108002186,0.0615856796503067,-0.007462570443749428,0.09866005182266235,-0.1922086775302887,0.06869395077228546,-4.323013126850128e-05,13.337614059448242,6.884957790374756,6.452656269073486,1830.0,1795.0,-0.03800865262746811,-0.6056346893310547,-0.07438864558935165,0.0002099098637700081,-0.019077392295002937,0.06934911012649536,-0.009335726499557495,0.09597761929035187,-0.1728910207748413,0.01275573205202818,-0.13738790154457092,-0.11067710816860199,0.00817253440618515,-4.3230153096374124e-05,1.0,0.3187524378299713,0.8525182604789734,0,0.00016799999866634607,4223648710,1987,968
827477062,4,408,20035,10964,527015314,527016,519865,334,-2630,5068,-5686,81,364,247,27.609375,0.04775090515613556,0.21347223222255707,0.9321816563606262,-6.242843151092529,-0.9253414273262024,4.189827919006348,0.3521575927734375,-0.2885434627532959,4.420095443725586,1530,1500,1520,1500,2000,1000,1000,1000,1537,1460,1495,1846,1781,1506,1478,136,108,21150,21342,3,90.53999999999999,0.54,88.02,-1.98,1,1,1,1,1,1,1,0,1,1,0,0,stabilized_mix,0.39120301604270935,-0.13118501007556915,0.16252745687961578,0.01280304230749607,0.03472936525940895,0.223488911986351,0.0,0.04800000041723251,-0.01280304230749607,0.013270635157823563,-0.06164276599884033,0.10420863330364227,-0.0640152096748352,0.06635317206382751,0.002372444374486804,0.03785546123981476,0.0,0.0,1.0,-0.0640152096748352,0.06635317206382751,0.05208701267838478,0.002372444374486804,0.03785546123981476,-0.0,-0.06164276599884033,0.10420863330364227,0.05208701267838478,-0.0058597177267074585,0.06653422117233276,13.339926719665527,-0.00043926158105023205,-0.004987558349967003,0.0009191892459057271,0.024846874177455902,0.0058806538581848145,0.0387917086482048,0.007167758420109749,0.0636134073138237,-0.19169138371944427,-0.036563146859407425,-7.98890832811594e-05,13.340094566345215,7.069492816925049,6.270602226257324,1846.0,1781.0,-0.037959109991788864,-0.6056873798370361,-0.05194752290844917,-0.01287121418863535,-0.018301187083125114,0.04653267562389374,0.005044904071837664,0.09545787423849106,-0.1089581698179245,-0.016150254756212234,0.07312629371881485,-0.07144305855035782,-0.007872646674513817,-7.98890832811594e-05,1.0,0.20571930706501007,0.8526768684387207,0,0.00021600001491606236,1979307004,1987,968
827477062,4,408,20036,10964,527019347,527020,519869,352,-6761,11816,6262,29,-62,101,27.75,-0.02180643379688263,-0.06927192211151123,1.0694113969802856,-7.529692649841309,-0.10773849487304688,-7.701573371887207,0.29057952761650085,-0.18322327733039856,4.399599075317383,1530,1500,1520,1500,2000,1000,1000,1000,1537,1451,1500,1830,1795,1506,1478,140,112,21150,21342,3,90.53999999999999,0.54,88.02,-1.98,1,1,1,1,1,1,1,0,1,1,0,0,stabilized_mix,0.5106618404388428,0.183050274848938,0.19574056565761566,0.01493232510983944,0.03470699489116669,0.22418248653411865,0.0,0.04800000041723251,-0.01493232510983944,0.013293005526065826,-0.07229277491569519,0.1043238490819931,-0.07466162741184235,0.06646502763032913,0.0023688531946390867,0.03785881772637367,0.0,0.0,1.0,-0.07466162741184235,0.06646502763032913,0.05190461128950119,0.0023688531946390867,0.03785881772637367,-0.0,-0.07229277491569519,0.1043238490819931,0.05190461128950119,-0.04493555426597595,0.08211750537157059,13.340115547180176,-0.003368440316990018,-0.006155569106340408,0.0003295658971183002,0.029827512800693512,0.0006842986913397908,0.046789973974227905,0.00019773955864366144,0.0766834020614624,-0.19097591936588287,0.0672089084982872,-4.3318490497767925e-05,13.340444564819336,6.886814594268799,6.453629493713379,1830.0,1795.0,-0.03790165111422539,-0.6057410836219788,-0.06055012345314026,-0.008140833117067814,-0.018587809056043625,0.05586281418800354,0.001804386149160564,0.09530207514762878,-0.13141793012619019,-0.001880391500890255,-0.1344178169965744,-0.08609765768051147,-0.0002183060860261321,-4.331845048000105e-05,1.0,0.2479104995727539,0.8526992201805115,0,0.00026400003116577864,306714499,1987,968
