magic,version,size,sequence,dropped_records,timestamp_us,tick_ms,imu_sequence,raw_temperature,raw_accel_x,raw_accel_y,raw_accel_z,raw_gyro_x,raw_gyro_y,raw_gyro_z,temperature_c,accel_x_g,accel_y_g,accel_z_g,gyro_x_dps,gyro_y_dps,gyro_z_dps,roll_deg,pitch_deg,yaw_deg,rc_ch1_us,rc_ch2_us,rc_ch3_us,rc_ch4_us,rc_ch5_us,rc_ch6_us,rc_ch7_us,rc_ch8_us,throttle_us,servo_alpha_us,servo_beta_us,motor_upper_us,motor_lower_us,servo_alpha_feedback_us,servo_beta_feedback_us,servo_alpha_feedback_age_ms,servo_beta_feedback_age_ms,servo_alpha_feedback_sequence,servo_beta_feedback_sequence,servo_feedback_valid_mask,servo_alpha_feedback_deg,servo_alpha_feedback_tilt_deg,servo_beta_feedback_deg,servo_beta_feedback_tilt_deg,rc_armed,rc_link_ok,throttle_over_20,imu_valid,motor_output_reason,rc_link_seen,arm_switch_high,arm_throttle_low,arm_switch_seen_low,arm_switch_prev_high,imu_fault_latched,imu_fault_reason,motor_output_reason_name,acc_nav_m_s2_0,acc_nav_m_s2_1,acc_nav_m_s2_2,vel_est_m_s_0,vel_est_m_s_1,vel_est_m_s_2,vel_ref_m_s_0,vel_ref_m_s_1,vel_err_m_s_0,vel_err_m_s_1,vel_pid_out_m_s2_0,vel_pid_out_m_s2_1,vel_pid_p_m_s2_0,vel_pid_p_m_s2_1,vel_pid_i_m_s2_0,vel_pid_i_m_s2_1,vel_pid_d_m_s2_0,vel_pid_d_m_s2_1,vel_loop_active,ctrl_pos_p_m_s2_0,ctrl_pos_p_m_s2_1,ctrl_pos_p_m_s2_2,ctrl_vel_d_m_s2_0,ctrl_vel_d_m_s2_1,ctrl_vel_d_m_s2_2,ctrl_accel_out_m_s2_0,ctrl_accel_out_m_s2_1,ctrl_accel_out_m_s2_2,ctrl_force_cmd_n_0,ctrl_force_cmd_n_1,ctrl_force_cmd_n_2,ctrl_tilt_ff_rad_0,ctrl_tilt_ff_rad_1,ctrl_tilt_angle_p_rad_0,ctrl_tilt_angle_p_rad_1,ctrl_tilt_rate_d_rad_0,ctrl_tilt_rate_d_rad_1,ctrl_tilt_out_rad_0,ctrl_tilt_out_rad_1,ctrl_yaw_angle_p_rad_s,ctrl_yaw_rate_d_rad_s,ctrl_yaw_torque_cmd,ctrl_total_force_n,ctrl_motor_thrust_cmd_n_0,ctrl_motor_thrust_cmd_n_1,ctrl_motor_cmd_us_0,ctrl_motor_cmd_us_1,ctrl_velocity_integral_m_0,ctrl_velocity_integral_m_1,ctrl_desired_attitude_rpy_rad_0,ctrl_desired_attitude_rpy_rad_1,ctrl_desired_attitude_rpy_rad_2,ctrl_attitude_error_0,ctrl_attitude_error_1,ctrl_attitude_error_2,ctrl_rate_error_rad_s_0,ctrl_rate_error_rad_s_1,ctrl_rate_error_rad_s_2,ctrl_moment_cmd_n_m_0,ctrl_moment_cmd_n_m_1,ctrl_moment_cmd_n_m_2,ctrl_horizontal_command_scale,ctrl_moment_utilization,ctrl_thrust_utilization,ctrl_protection_flags,z_ref_m,ident_att_active,ident_att_axis,ident_att_mode,ident_att_reserved,ident_att_seq,ident_att_signal_rad,ident_att_signal_m_s2,ident_att_elapsed_ms,record_crc32,sector_seq,sector_index
827477062,5,428,4848,2671,68128035,68128,64686,358,-1310,874,390,422,36,-646,27.796875,-0.053889717906713486,0.07200493663549423,0.8942617774009705,21.04454231262207,-11.768341064453125,8.305425643920898,-5.4322590827941895,-9.928882598876953,-4.160499572753906,1586,1500,989,1500,2000,1503,1000,1000,1100,1500,1500,1100,1100,1549,1509,2,13,2386,2388,3,94.41,4.41,90.81,0.8099999999999999,1,1,0,1,2,1,1,1,1,1,0,0,direct_throttle,-0.0038530505262315273,-0.014306494034826756,0.08665329217910767,-0.01164155825972557,0.03101949207484722,8.706467633601278e-05,0.0,0.13439999520778656,0.11572693288326263,0.09752672910690308,0.0,0.0,0.0,0.0,0.0,0.0,0.0,0.0,0.0,0.0,0.0,0.0,0.0,0.0,0.0,0.0,0.0,0.0,0.0,0.0,0.0,0.0,0.0,0.0,0.0,0.0,0.0,0.0,0.0,0.0,0.0,0.0,0.0,0.0,0.0,0.0,0.0,0.0,0.0,0.0,0.0,0.0,0.0,0.0,0.0,0.0,0.0,0.0,0.0,0.0,0.0,0.0,0.0,0.0,0,0.2985037565231323,0,0,0,0,0,0.0,0.0,0,1683685301,1351,332
827477062,5,428,4849,2671,68131060,68132,64689,380,5333,8003,1974,367,88,-567,27.96875,0.052201975136995316,-0.25944048166275024,0.8520318865776062,17.363250732421875,-11.987811088562012,-0.7383626699447632,-5.544735431671143,-9.808845520019531,-4.162272930145264,1586,1500,989,1500,2000,1503,1000,1000,1100,1500,1500,1100,1100,1549,1509,6,17,2386,2388,3,94.41,4.41,90.81,0.8099999999999999,1,1,0,1,2,1,1,1,1,1,0,0,direct_throttle,0.0,0.0,0.0,-0.011655262671411037,0.03108070231974125,0.0,0.0,0.13439999520778656,0.11572693288326263,0.09752672910690308,0.0,0.0,0.0,0.0,0.0,0.0,0.0,0.0,0.0,0.0,0.0,0.0,0.0,0.0,0.0,0.0,0.0,0.0,0.0,0.0,0.0,0.0,0.0,0.0,0.0,0.0,0.0,0.0,0.0,0.0,0.0,0.0,0.0,0.0,0.0,0.0,0.0,0.0,0.0,0.0,0.0,0.0,0.0,0.0,0.0,0.0,0.0,0.0,0.0,0.0,0.0,0.0,0.0,0.0,0,0.2985037565231323,0,0,0,0,0,0.0,0.0,0,417245100,1351,332
827477062,5,428,4850,2671,68135144,68136,64693,380,1703,3106,1125,410,-129,-525,27.96875,-0.07485144585371017,0.020122986286878586,0.7473608255386353,19.64072036743164,-12.29633617401123,5.8922295570373535,-5.57014799118042,-9.742132186889648,-4.129302024841309,1586,1500,989,1500,2000,1503,1000,1000,1100,1500,1500,1100,1100,1549,1509,10,21,2386,2388,3,94.41,4.41,90.81,0.8099999999999999,1,1,0,1,2,1,1,1,1,1,0,0,direct_throttle,-0.01013649720698595,0.021965254098176956,0.04201483726501465,-0.007804239634424448,0.011713054962456226,4.166838334640488e-05,0.0,0.13439999520778656,0.11572693288326263,0.09752672910690308,0.0,0.0,0.0,0.0,0.0,0.0,0.0,0.0,0.0,0.0,0.0,0.0,0.0,0.0,0.0,0.0,0.0,0.0,0.0,0.0,0.0,0.0,0.0,0.0,0.0,0.0,0.0,0.0,0.0,0.0,0.0,0.0,0.0,0.0,0.0,0.0,0.0,0.0,0.0,0.0,0.0,0.0,0.0,0.0,0.0,0.0,0.0,0.0,0.0,0.0,0.0,0.0,0.0,0.0,0,0.2985037565231323,0,0,0,0,0,0.0,0.0,0,4182106929,1351,332
827477062,5,428,4851,2671,68139152,68140,64697,376,-7365,9682,1537,344,713,-798,27.9375,-0.10498201102018356,-0.03687585890293121,0.8990476727485657,20.12775993347168,-11.810526847839355,11.053302764892578,-5.7168378829956055,-9.678327560424805,-4.110911846160889,1586,1500,989,1500,2000,1503,1000,1000,1100,1500,1500,1100,1100,1549,1523,14,3,2386,2389,3,94.41,4.41,92.07,2.07,1,1,0,1,2,1,1,1,1,1,0,0,direct_throttle,-0.0085542481392622,-0.10783081501722336,-0.006053753197193146,-0.007802802603691816,0.01158961746841669,-5.755750862590503e-06,0.0,0.13439999520778656,0.11572693288326263,0.09752672910690308,0.0,0.0,0.0,0.0,0.0,0.0,0.0,0.0,0.0,0.0,0.0,0.0,0.0,0.0,0.0,0.0,0.0,0.0,0.0,0.0,0.0,0.0,0.0,0.0,0.0,0.0,0.0,0.0,0.0,0.0,0.0,0.0,0.0,0.0,0.0,0.0,0.0,0.0,0.0,0.0,0.0,0.0,0.0,0.0,0.0,0.0,0.0,0.0,0.0,0.0,0.0,0.0,0.0,0.0,0,0.2985037565231323,0,0,0,0,0,0.0,0.0,0,3866520342,1351,332
827477062,5,428,4852,2671,68143183,68144,64701,368,9463,5150,-2019,456,-497,-430,27.875,-0.014143940061330795,-0.18885016441345215,0.7570473551750183,16.760395050048828,-14.1658296585083,-5.105752468109131,-5.702813625335693,-9.687183380126953,-4.0949177742004395,1585,1500,989,1462,2000,1503,1000,1000,1100,1500,1500,1100,1100,1549,1523,18,7,2386,2389,3,94.41,4.41,92.07,2.07,1,1,0,1,2,1,1,1,1,1,0,0,direct_throttle,0.027619320899248123,0.10680445283651352,0.015480137430131435,-0.008668940514326096,0.017432134598493576,1.431581586075481e-05,0.0,0.13439999520778656,0.11572693288326263,0.09752672910690308,0.0,0.0,0.0,0.0,0.0,0.0,0.0,0.0,0.0,0.0,0.0,0.0,0.0,0.0,0.0,0.0,0.0,0.0,0.0,0.0,0.0,0.0,0.0,0.0,0.0,0.0,0.0,0.0,0.0,0.0,0.0,0.0,0.0,0.0,0.0,0.0,0.0,0.0,0.0,0.0,0.0,0.0,0.0,0.0,0.0,0.0,0.0,0.0,0.0,0.0,0.0,0.0,0.0,0.0,0,0.2985037565231323,0,0,0,0,0,0.0,0.0,0,1441169116,1351,332
827477062,5,428,4853,2671,68147204,68148,64705,384,-2458,2593,-29,486,105,-739,28.0,-0.06243116408586502,0.07649160921573639,0.8726574182510376,21.47176742553711,-14.088774681091309,6.202144145965576,-5.767693042755127,-9.63734245300293,-4.083446025848389,1585,1500,989,1462,2000,1503,1000,1000,1100,1500,1500,1100,1100,1543,1523,2,11,2387,2389,3,93.86999999999999,3.8699999999999997,92.07,2.07,1,1,0,1,2,1,1,1,1,1,0,0,direct_throttle,0.0026456094346940517,-0.02682044915854931,0.0611666701734066,-0.007821379229426384,0.019534945487976074,5.607697676168755e-05,0.0,0.13439999520778656,0.11572693288326263,0.09752672910690308,0.0,0.0,0.0,0.0,0.0,0.0,0.0,0.0,0.0,0.0,0.0,0.0,0.0,0.0,0.0,0.0,0.0,0.0,0.0,0.0,0.0,0.0,0.0,0.0,0.0,0.0,0.0,0.0,0.0,0.0,0.0,0.0,0.0,0.0,0.0,0.0,0.0,0.0,0.0,0.0,0.0,0.0,0.0,0.0,0.0,0.0,0.0,0.0,0.0,0.0,0.0,0.0,0.0,0.0,0,0.2985037565231323,0,0,0,0,0,0.0,0.0,0,1320469503,1351,332
827477062,5,428,4854,2671,68151229,68152,64709,380,2096,10335,-465,412,303,-666,27.96875,0.05163322761654854,-0.22823379933834076,0.8792217969894409,18.101224899291992,-13.032686233520508,0.8514556884765625,-5.845565319061279,-9.525931358337402,-4.086059093475342,1585,1500,989,1462,2000,1503,1000,1000,1100,1500,1500,1100,1100,1543,1523,6,15,2387,2389,3,93.86999999999999,3.8699999999999997,92.07,2.07,1,1,0,1,2,1,1,1,1,1,0,0,direct_throttle,-0.001941148773767054,-0.008302917703986168,-0.0416669100522995,-0.007824726402759552,0.019548628479242325,-4.1823077481240034e-05,0.0,0.13439999520778656,0.11572693288326263,0.09752672910690308,0.0,0.0,0.0,0.0,0.0,0.0,0.0,0.0,0.0,0.0,0.0,0.0,0.0,0.0,0.0,0.0,0.0,0.0,0.0,0.0,0.0,0.0,0.0,0.0,0.0,0.0,0.0,0.0,0.0,0.0,0.0,0.0,0.0,0.0,0.0,0.0,0.0,0.0,0.0,0.0,0.0,0.0,0.0,0.0,0.0,0.0,0.0,0.0,0.0,0.0,0.0,0.0,0.0,0.0,0,0.2985037565231323,0,0,0,0,0,0.0,0.0,0,3951610158,1351,332
827477062,5,428,4855,2671,68155244,68156,64713,384,185,2710,262,437,-289,-513,28.0,-0.05903446674346924,0.047825343906879425,0.6837615370750427,19.10788345336914,-14.05172061920166,0.45148181915283203,-5.803221225738525,-9.512106895446777,-4.065940856933594,1585,1500,989,1462,2000,1503,1000,1000,1100,1500,1500,1100,1100,1543,1523,10,19,2387,2389,3,93.86999999999999,3.8699999999999997,92.07,2.07,1,1,0,1,2,1,1,1,1,1,0,0,direct_throttle,-0.00037459732266142964,0.004584624897688627,0.0397755466401577,-0.003924017772078514,0.019622744992375374,3.904999903170392e-05,0.0,0.13439999520778656,0.11572693288326263,0.09752672910690308,0.0,0.0,0.0,0.0,0.0,0.0,0.0,0.0,0.0,0.0,0.0,0.0,0.0,0.0,0.0,0.0,0.0,0.0,0.0,0.0,0.0,0.0,0.0,0.0,0.0,0.0,0.0,0.0,0.0,0.0,0.0,0.0,0.0,0.0,0.0,0.0,0.0,0.0,0.0,0.0,0.0,0.0,0.0,0.0,0.0,0.0,0.0,0.0,0.0,0.0,0.0,0.0,0.0,0.0,0,0.2985037565231323,0,0,0,0,0,0.0,0.0,0,3139402720,1351,332
827477062,5,428,4864,2679,68191538,68192,64749,368,-1227,4578,-1124,611,-317,-550,27.875,-0.03669128566980362,0.13405391573905945,0.5919661521911621,18.105213165283203,-17.958894729614258,-2.682349920272827,-6.020976543426514,-8.782031059265137,-4.053037166595459,1585,1500,989,1462,2000,1503,1000,1000,1100,1500,1500,1100,1100,1540,1516,6,16,2389,2391,3,93.6,3.5999999999999996,91.44,1.44,1,1,0,1,2,1,1,1,1,1,0,0,direct_throttle,0.018714306876063347,-0.002478640293702483,0.005366049241274595,-0.007911319844424725,0.01585778221487999,5.4022511903895065e-06,0.0,0.13439999520778656,0.11572693288326263,0.09752672910690308,0.0,0.0,0.0,0.0,0.0,0.0,0.0,0.0,0.0,0.0,0.0,0.0,0.0,0.0,0.0,0.0,0.0,0.0,0.0,0.0,0.0,0.0,0.0,0.0,0.0,0.0,0.0,0.0,0.0,0.0,0.0,0.0,0.0,0.0,0.0,0.0,0.0,0.0,0.0,0.0,0.0,0.0,0.0,0.0,0.0,0.0,0.0,0.0,0.0,0.0,0.0,0.0,0.0,0.0,0,0.2985037565231323,0,0,0,0,0,0.0,0.0,0,1586141383,1352,333
827477062,5,428,4865,2679,68195569,68196,64753,378,3157,7962,1175,664,34,-625,27.953125,0.0407792292535305,-0.17708083987236023,0.6222063302993774,17.323854446411133,-20.487255096435547,-3.65199613571167,-6.111802101135254,-8.655076026916504,-4.075429916381836,1581,1500,989,1455,2000,1503,1000,1000,1100,1500,1500,1100,1100,1540,1516,10,20,2389,2391,3,93.6,3.5999999999999996,91.44,1.44,1,1,0,1,2,1,1,1,1,1,0,0,direct_throttle,-0.02577914297580719,0.013035300187766552,-0.04019073769450188,-0.003998324275016785,0.015902632847428322,-4.050205461680889e-05,0.0,0.13439999520778656,0.11572693288326263,0.09752672910690308,0.0,0.0,0.0,0.0,0.0,0.0,0.0,0.0,0.0,0.0,0.0,0.0,0.0,0.0,0.0,0.0,0.0,0.0,0.0,0.0,0.0,0.0,0.0,0.0,0.0,0.0,0.0,0.0,0.0,0.0,0.0,0.0,0.0,0.0,0.0,0.0,0.0,0.0,0.0,0.0,0.0,0.0,0.0,0.0,0.0,0.0,0.0,0.0,0.0,0.0,0.0,0.0,0.0,0.0,0,0.2985037565231323,0,0,0,0,0,0.0,0.0,0,3988432895,1352,333
827477062,5,428,4866,2679,68199601,68200,64757,388,647,3150,-1710,529,-292,-527,28.03125,-0.029875092208385468,0.1120757982134819,0.5048960447311401,17.980518341064453,-16.9793643951416,-3.6049818992614746,-5.990660190582275,-8.683550834655762,-4.081920146942139,1580,1500,989,1457,2000,1503,1000,1000,1100,1500,1500,1100,1100,1540,1516,14,4,2389,2392,3,93.6,3.5999999999999996,91.44,1.44,1,1,0,1,2,1,1,1,1,1,0,0,direct_throttle,0.023597413673996925,0.016714798286557198,0.021985160186886787,-0.003948687110096216,0.015906350687146187,2.2111507860245183e-05,0.0,0.13439999520778656,0.11572693288326263,0.09752672910690308,0.0,0.0,0.0,0.0,0.0,0.0,0.0,0.0,0.0,0.0,0.0,0.0,0.0,0.0,0.0,0.0,0.0,0.0,0.0,0.0,0.0,0.0,0.0,0.0,0.0,0.0,0.0,0.0,0.0,0.0,0.0,0.0,0.0,0.0,0.0,0.0,0.0,0.0,0.0,0.0,0.0,0.0,0.0,0.0,0.0,0.0,0.0,0.0,0.0,0.0,0.0,0.0,0.0,0.0,0,0.2985037565231323,0,0,0,0,0,0.0,0.0,0,3429828004,1352,333
827477062,5,428,4867,2679,68203633,68204,64761,380,6356,5485,2828,657,47,-560,27.96875,0.06033169478178024,-0.23952245712280273,0.45097267627716064,16.45915412902832,-20.9804630279541,-1.9876021146774292,-6.140251636505127,-8.464807510375977,-4.099819183349609,1580,1500,989,1462,2000,1503,1000,1000,1100,1500,1500,1100,1100,1540,1516,18,8,2389,2392,3,93.6,3.5999999999999996,91.44,1.44,1,1,0,1,2,1,1,1,1,1,0,0,direct_throttle,-0.05531332641839981,0.0483669675886631,-0.026588402688503265,-0.008002488873898983,0.015944983810186386,-2.565161958045792e-05,0.0,0.13439999520778656,0.11572693288326263,0.09752672910690308,0.0,0.0,0.0,0.0,0.0,0.0,0.0,0.0,0.0,0.0,0.0,0.0,0.0,0.0,0.0,0.0,0.0,0.0,0.0,0.0,0.0,0.0,0.0,0.0,0.0,0.0,0.0,0.0,0.0,0.0,0.0,0.0,0.0,0.0,0.0,0.0,0.0,0.0,0.0,0.0,0.0,0.0,0.0,0.0,0.0,0.0,0.0,0.0,0.0,0.0,0.0,0.0,0.0,0.0,0,0.2985037565231323,0,0,0,0,0,0.0,0.0,0,3867071042,1352,333
827477062,5,428,4868,2679,68207665,68208,64765,376,-190,4313,1579,503,-214,-534,27.9375,-0.14845238626003265,0.10765933245420456,0.39633339643478394,17.556306838989258,-16.572139739990234,-1.7562460899353027,-6.060169696807861,-8.621001243591309,-4.100873947143555,1580,1500,989,1462,2000,1503,1000,1000,1100,1500,1500,1100,1100,1540,1516,3,12,2390,2392,3,93.6,3.5999999999999996,91.44,1.44,1,1,0,1,2,1,1,1,1,1,0,0,direct_throttle,-0.0010026240488514304,0.013380761258304119,-0.011778345331549644,-0.007949694991111755,0.015910828486084938,-1.1857807294290978e-05,0.0,0.13439999520778656,0.11572693288326263,0.09752672910690308,0.0,0.0,0.0,0.0,0.0,0.0,0.0,0.0,0.0,0.0,0.0,0.0,0.0,0.0,0.0,0.0,0.0,0.0,0.0,0.0,0.0,0.0,0.0,0.0,0.0,0.0,0.0,0.0,0.0,0.0,0.0,0.0,0.0,0.0,0.0,0.0,0.0,0.0,0.0,0.0,0.0,0.0,0.0,0.0,0.0,0.0,0.0,0.0,0.0,0.0,0.0,0.0,0.0,0.0,0,0.2985037565231323,0,0,0,0,0,0.0,0.0,0,3511227677,1352,333
827477062,5,428,4869,2679,68211697,68212,64769,376,6452,6756,-11,800,-32,-541,27.9375,0.11005638539791107,-0.17097687721252441,0.39020809531211853,16.00662612915039,-22.691051483154297,-3.4237513542175293,-6.101966857910156,-8.458146095275879,-4.119058132171631,1580,1500,989,1462,2000,1503,1000,1000,1100,1500,1500,1100,1100,1540,1516,7,16,2390,2392,3,93.6,3.5999999999999996,91.44,1.44,1,1,0,1,2,1,1,1,1,1,0,0,direct_throttle,-0.033864106982946396,0.058630600571632385,-0.0502973273396492,-0.007982168346643448,0.015955425798892975,-4.932957745040767e-05,0.0,0.13439999520778656,0.11572693288326263,0.09752672910690308,0.0,0.0,0.0,0.0,0.0,0.0,0.0,0.0,0.0,0.0,0.0,0.0,0.0,0.0,0.0,0.0,0.0,0.0,0.0,0.0,0.0,0.0,0.0,0.0,0.0,0.0,0.0,0.0,0.0,0.0,0.0,0.0,0.0,0.0,0.0,0.0,0.0,0.0,0.0,0.0,0.0,0.0,0.0,0.0,0.0,0.0,0.0,0.0,0.0,0.0,0.0,0.0,0.0,0.0,0,0.2985037565231323,0,0,0,0,0,0.0,0.0,0,866648532,1352,333
827477062,5,428,4870,2679,68215728,68216,64773,380,-4726,3560,4268,499,-261,-580,27.96875,-0.11496629565954208,0.1752912700176239,0.406038761138916,17.71747398376465,-17.38431167602539,-3.3961329460144043,-6.039618492126465,-8.453076362609863,-4.126807689666748,1580,1500,989,1462,2000,1503,1000,1000,1100,1500,1500,1100,1100,1540,1514,11,1,2390,2393,3,93.6,3.5999999999999996,91.25999999999999,1.26,1,1,0,1,2,1,1,1,1,1,0,0,direct_throttle,-0.04335808753967285,-0.04227520897984505,-0.01800507679581642,-0.01595722883939743,0.027806470170617104,-1.81085524673108e-05,0.0,0.13439999520778656,0.11572693288326263,0.09752672910690308,0.0,0.0,0.0,0.0,0.0,0.0,0.0,0.0,0.0,0.0,0.0,0.0,0.0,0.0,0.0,0.0,0.0,0.0,0.0,0.0,0.0,0.0,0.0,0.0,0.0,0.0,0.0,0.0,0.0,0.0,0.0,0.0,0.0,0.0,0.0,0.0,0.0,0.0,0.0,0.0,0.0,0.0,0.0,0.0,0.0,0.0,0.0,0.0,0.0,0.0,0.0,0.0,0.0,0.0,0,0.2985037565231323,0,0,0,0,0,0.0,0.0,0,1211286105,1352,333
827477062,5,428,4871,2679,68219760,68220,64777,376,2936,172,-4098,944,-285,-523,27.9375,0.1379474699497223,-0.0673830658197403,0.3454172909259796,15.666419982910156,-22.919382095336914,-9.178189277648926,-5.957101345062256,-8.342482566833496,-4.160952091217041,1582,1500,989,1477,2000,1503,1000,1000,1100,1500,1500,1100,1100,1540,1514,15,5,2390,2393,3,93.6,3.5999999999999996,91.25999999999999,1.26,1,1,0,1,2,1,1,1,1,1,0,0,direct_throttle,0.04529965668916702,0.03322532773017883,0.027624493464827538,-0.015868036076426506,0.0278822910040617,2.783847230602987e-05,0.0,0.13439999520778656,0.11572693288326263,0.09752672910690308,0.0,0.0,0.0,0.0,0.0,0.0,0.0,0.0,0.0,0.0,0.0,0.0,0.0,0.0,0.0,0.0,0.0,0.0,0.0,0.0,0.0,0.0,0.0,0.0,0.0,0.0,0.0,0.0,0.0,0.0,0.0,0.0,0.0,0.0,0.0,0.0,0.0,0.0,0.0,0.0,0.0,0.0,0.0,0.0,0.0,0.0,0.0,0.0,0.0,0.0,0.0,0.0,0.0,0.0,0,0.2985037565231323,0,0,0,0,0,0.0,0.0,0,728814371,1352,333
827477062,5,428,4880,2687,68256053,68256,64813,382,-2019,581,6023,254,-115,-620,27.984375,0.0910024642944336,-0.05226398631930351,0.07170961052179337,17.054079055786133,-16.167396545410156,-5.941673278808594,-7.0704665184021,-7.028325080871582,-4.449243545532227,1583,1500,989,1485,2000,1503,1000,1000,1100,1500,1500,1100,1100,1539,1510,10,20,2392,2394,3,93.50999999999999,3.51,90.89999999999999,0.8999999999999999,1,1,0,1,2,1,1,1,1,1,0,0,direct_throttle,-0.0182496327906847,-0.01809173822402954,0.09395073354244232,-0.01194390282034874,0.015882505103945732,9.467847121413797e-05,0.0,0.13439999520778656,0.11572693288326263,0.09752672910690308,0.0,0.0,0.0,0.0,0.0,0.0,0.0,0.0,0.0,0.0,0.0,0.0,0.0,0.0,0.0,0.0,0.0,0.0,0.0,0.0,0.0,0.0,0.0,0.0,0.0,0.0,0.0,0.0,0.0,0.0,0.0,0.0,0.0,0.0,0.0,0.0,0.0,0.0,0.0,0.0,0.0,0.0,0.0,0.0,0.0,0.0,0.0,0.0,0.0,0.0,0.0,0.0,0.0,0.0,0,0.2985037565231323,0,0,0,0,0,0.0,0.0,0,4226577038,1353,334
827477062,5,428,4881,2687,68259128,68260,64816,384,-3234,2132,8367,527,-481,-532,28.0,-0.3777718245983124,0.12230870127677917,0.18465907871723175,17.317501068115234,-14.07136344909668,-8.830671310424805,-6.806182384490967,-7.597274303436279,-4.4698486328125,1583,1500,989,1485,2000,1503,1000,1000,1100,1500,1500,1100,1100,1539,1511,14,4,2392,2395,3,93.50999999999999,3.51,90.99,0.99,1,1,0,1,2,1,1,1,1,1,0,0,direct_throttle,-0.025853784754872322,-0.024578813463449478,-0.0692901760339737,-0.011951289139688015,0.01587762124836445,-6.747219595126808e-05,0.0,0.13439999520778656,0.11572693288326263,0.09752672910690308,0.0,0.0,0.0,0.0,0.0,0.0,0.0,0.0,0.0,0.0,0.0,0.0,0.0,0.0,0.0,0.0,0.0,0.0,0.0,0.0,0.0,0.0,0.0,0.0,0.0,0.0,0.0,0.0,0.0,0.0,0.0,0.0,0.0,0.0,0.0,0.0,0.0,0.0,0.0,0.0,0.0,0.0,0.0,0.0,0.0,0.0,0.0,0.0,0.0,0.0,0.0,0.0,0.0,0.0,0,0.2985037565231323,0,0,0,0,0,0.0,0.0,0,972392149,1353,334
827477062,5,428,4882,2687,68263160,68264,64820,364,2619,1903,-7786,946,-536,-428,27.84375,0.028439700603485107,0.11013137549161911,0.1887192726135254,14.816581726074219,-24.320951461791992,-16.893085479736328,-6.07492733001709,-8.147903442382812,-4.532674789428711,1583,1500,989,1485,2000,1503,1000,1000,1100,1500,1500,1100,1100,1539,1511,18,8,2392,2395,3,93.50999999999999,3.51,90.99,0.99,1,1,0,1,2,1,1,1,1,1,0,0,direct_throttle,0.07409408688545227,0.03606035187840462,0.07667015492916107,-0.01761702448129654,0.02429649606347084,7.350905070779845e-05,0.0,0.13439999520778656,0.11572693288326263,0.09752672910690308,0.0,0.0,0.0,0.0,0.0,0.0,0.0,0.0,0.0,0.0,0.0,0.0,0.0,0.0,0.0,0.0,0.0,0.0,0.0,0.0,0.0,0.0,0.0,0.0,0.0,0.0,0.0,0.0,0.0,0.0,0.0,0.0,0.0,0.0,0.0,0.0,0.0,0.0,0.0,0.0,0.0,0.0,0.0,0.0,0.0,0.0,0.0,0.0,0.0,0.0,0.0,0.0,0.0,0.0,0,0.2985037565231323,0,0,0,0,0,0.0,0.0,0,3666862770,1353,334
827477062,5,428,4883,2687,68267177,68268,64824,380,3703,483,-1382,673,-298,-515,27.96875,0.31703540682792664,-0.1852119117975235,0.10546499490737915,14.693131446838379,-22.12676429748535,-12.712800025939941,-6.568475246429443,-7.2651824951171875,-4.593098163604736,1583,1500,989,1485,2000,1503,1000,1000,1100,1500,1500,1100,1100,1539,1511,2,12,2393,2395,3,93.50999999999999,3.51,90.99,0.99,1,1,0,1,2,1,1,1,1,1,0,0,direct_throttle,-0.02454564720392227,0.02292761020362377,0.005838747136294842,-0.019849827513098717,0.027778785675764084,5.609687832475174e-06,0.0,0.13439999520778656,0.11572693288326263,0.09752672910690308,0.0,0.0,0.0,0.0,0.0,0.0,0.0,0.0,0.0,0.0,0.0,0.0,0.0,0.0,0.0,0.0,0.0,0.0,0.0,0.0,0.0,0.0,0.0,0.0,0.0,0.0,0.0,0.0,0.0,0.0,0.0,0.0,0.0,0.0,0.0,0.0,0.0,0.0,0.0,0.0,0.0,0.0,0.0,0.0,0.0,0.0,0.0,0.0,0.0,0.0,0.0,0.0,0.0,0.0,0,0.2985037565231323,0,0,0,0,0,0.0,0.0,0,2515145464,1353,334
827477062,5,428,4884,2687,68271221,68272,64828,368,-760,-184,2542,577,-315,-537,27.875,-0.11129829287528992,-0.06949843466281891,0.08808459341526031,16.419857025146484,-18.889558792114258,-11.76082706451416,-7.273564338684082,-7.277225971221924,-4.643327713012695,1583,1500,989,1485,2000,1503,1000,1000,1100,1500,1500,1100,1100,1539,1511,6,16,2393,2395,3,93.50999999999999,3.51,90.99,0.99,1,1,0,1,2,1,1,1,1,1,0,0,direct_throttle,-0.029087020084261894,-0.004938830155879259,0.00907951407134533,-0.019854174926877022,0.027751436457037926,8.841293492878322e-06,0.0,0.13439999520778656,0.11572693288326263,0.09752672910690308,0.0,0.0,0.0,0.0,0.0,0.0,0.0,0.0,0.0,0.0,0.0,0.0,0.0,0.0,0.0,0.0,0.0,0.0,0.0,0.0,0.0,0.0,0.0,0.0,0.0,0.0,0.0,0.0,0.0,0.0,0.0,0.0,0.0,0.0,0.0,0.0,0.0,0.0,0.0,0.0,0.0,0.0,0.0,0.0,0.0,0.0,0.0,0.0,0.0,0.0,0.0,0.0,0.0,0.0,0,0.2985037565231323,0,0,0,0,0,0.0,0.0,0,1041952695,1353,334
827477062,5,428,4885,2687,68275231,68276,64832,362,1597,475,4956,573,-613,-519,27.828125,-0.11089105159044266,0.12757214903831482,0.09455738961696625,16.69830322265625,-17.525569915771484,-14.439826965332031,-6.554895877838135,-7.865320682525635,-4.697051525115967,1584,1500,989,1500,2000,1503,1000,1000,1100,1500,1500,1100,1100,1539,1511,10,20,2393,2395,3,93.50999999999999,3.51,90.99,0.99,1,1,0,1,2,1,1,1,1,1,0,0,direct_throttle,-0.057148948311805725,0.013340582139790058,0.028627367690205574,-0.007945749908685684,0.015790997073054314,2.8534372177091427e-05,0.0,0.13439999520778656,0.11572693288326263,0.09752672910690308,0.0,0.0,0.0,0.0,0.0,0.0,0.0,0.0,0.0,0.0,0.0,0.0,0.0,0.0,0.0,0.0,0.0,0.0,0.0,0.0,0.0,0.0,0.0,0.0,0.0,0.0,0.0,0.0,0.0,0.0,0.0,0.0,0.0,0.0,0.0,0.0,0.0,0.0,0.0,0.0,0.0,0.0,0.0,0.0,0.0,0.0,0.0,0.0,0.0,0.0,0.0,0.0,0.0,0.0,0,0.2985037565231323,0,0,0,0,0,0.0,0.0,0,4267221204,1353,334
827477062,5,428,4886,2687,68279241,68280,64836,378,5073,2743,1745,765,-468,-499,27.953125,-0.0015434883534908295,-0.04941490292549133,0.024026479572057724,15.369279861450195,-21.395450592041016,-15.5542631149292,-5.523632526397705,-7.9548659324646,-4.763405799865723,1584,1500,989,1500,2000,1503,1000,1000,1100,1500,1500,1100,1100,1539,1509,14,4,2393,2396,3,93.50999999999999,3.51,90.81,0.8099999999999999,1,1,0,1,2,1,1,1,1,1,0,0,direct_throttle,-0.023462187498807907,-0.06322375684976578,0.0344841405749321,-0.007911971770226955,0.01571659743785858,3.364830990904011e-05,0.0,0.13439999520778656,0.11572693288326263,0.09752672910690308,0.0,0.0,0.0,0.0,0.0,0.0,0.0,0.0,0.0,0.0,0.0,0.0,0.0,0.0,0.0,0.0,0.0,0.0,0.0,0.0,0.0,0.0,0.0,0.0,0.0,0.0,0.0,0.0,0.0,0.0,0.0,0.0,0.0,0.0,0.0,0.0,0.0,0.0,0.0,0.0,0.0,0.0,0.0,0.0,0.0,0.0,0.0,0.0,0.0,0.0,0.0,0.0,0.0,0.0,0,0.2985037565231323,0,0,0,0,0,0.0,0.0,0,1622795309,1353,334
827477062,5,428,4887,2687,68283262,68284,64840,380,961,1638,819,668,-283,-492,27.96875,-0.024237357079982758,-0.11324850469827652,0.08911973983049393,15.199337005615234,-21.061098098754883,-11.621356964111328,-6.243391513824463,-7.58161735534668,-4.818922519683838,1584,1500,989,1500,2000,1503,1000,1000,1100,1500,1500,1100,1100,1539,1509,18,8,2393,2396,3,93.50999999999999,3.51,90.81,0.8099999999999999,1,1,0,1,2,1,1,1,1,1,0,0,direct_throttle,-0.007829130627214909,-0.01022951677441597,-0.007387333083897829,-0.010925346985459328,0.015298185870051384,-7.259964149852749e-06,0.0,0.13439999520778656,0.11572693288326263,0.09752672910690308,0.0,0.0,0.0,0.0,0.0,0.0,0.0,0.0,0.0,0.0,0.0,0.0,0.0,0.0,0.0,0.0,0.0,0.0,0.0,0.0,0.0,0.0,0.0,0.0,0.0,0.0,0.0,0.0,0.0,0.0,0.0,0.0,0.0,0.0,0.0,0.0,0.0,0.0,0.0,0.0,0.0,0.0,0.0,0.0,0.0,0.0,0.0,0.0,0.0,0.0,0.0,0.0,0.0,0.0,0,0.2985037565231323,0,0,0,0,0,0.0,0.0,0,1761814604,1353,334
827477062,5,428,4896,2695,68319557,68320,64876,384,4814,1070,-2136,810,-578,-456,28.0,0.03330887854099274,-0.07455562055110931,0.057300738990306854,14.269214630126953,-23.186880111694336,-18.353513717651367,-6.053539276123047,-7.443556308746338,-5.307765960693359,1584,1500,989,1500,2000,1503,1000,1000,1100,1500,1500,1100,1100,1538,1509,14,4,2395,2398,3,93.42,3.42,90.81,0.8099999999999999,1,1,0,1,2,1,1,1,1,1,0,0,direct_throttle,0.025233378633856773,-0.0569266639649868,0.008134117349982262,-0.011414512060582638,0.0037559594493359327,8.205254744098056e-06,0.0,0.13439999520778656,0.11572693288326263,0.09752672910690308,0.0,0.0,0.0,0.0,0.0,0.0,0.0,0.0,0.0,0.0,0.0,0.0,0.0,0.0,0.0,0.0,0.0,0.0,0.0,0.0,0.0,0.0,0.0,0.0,0.0,0.0,0.0,0.0,0.0,0.0,0.0,0.0,0.0,0.0,0.0,0.0,0.0,0.0,0.0,0.0,0.0,0.0,0.0,0.0,0.0,0.0,0.0,0.0,0.0,0.0,0.0,0.0,0.0,0.0,0,0.2985037565231323,0,0,0,0,0,0.0,0.0,0,919800773,1354,335
827477062,5,428,4897,2695,68323586,68324,64880,368,1454,792,189,713,-382,-519,27.875,0.11208677291870117,-0.1623590886592865,-6.076321005821228e-05,15.297414779663086,-23.24395751953125,-13.149209976196289,-7.405353546142578,-6.93610954284668,-5.367674827575684,1584,1500,989,1500,2000,1503,1000,1000,1100,1500,1500,1100,1100,1538,1509,18,8,2395,2398,3,93.42,3.42,90.81,0.8099999999999999,1,1,0,1,2,1,1,1,1,1,0,0,direct_throttle,-0.01162320002913475,-0.010796181857585907,0.009408188052475452,-0.011281154118478298,0.007503804750740528,8.6159261627472e-06,0.0,0.13439999520778656,0.11572693288326263,0.09752672910690308,0.0,0.0,0.0,0.0,0.0,0.0,0.0,0.0,0.0,0.0,0.0,0.0,0.0,0.0,0.0,0.0,0.0,0.0,0.0,0.0,0.0,0.0,0.0,0.0,0.0,0.0,0.0,0.0,0.0,0.0,0.0,0.0,0.0,0.0,0.0,0.0,0.0,0.0,0.0,0.0,0.0,0.0,0.0,0.0,0.0,0.0,0.0,0.0,0.0,0.0,0.0,0.0,0.0,0.0,0,0.2985037565231323,0,0,0,0,0,0.0,0.0,0,821727027,1354,335
827477062,5,428,4898,2695,68327618,68328,64884,384,-990,2143,3671,506,-284,-563,28.0,-0.10336517542600632,-0.10531145334243774,0.0761953592300415,16.195446014404297,-17.77960205078125,-10.26855182647705,-8.56452465057373,-7.006353378295898,-5.4135661125183105,1584,1500,989,1500,2000,1503,1000,1000,1100,1500,1500,1100,1100,1538,1509,2,12,2396,2398,3,93.42,3.42,90.81,0.8099999999999999,1,1,0,1,2,1,1,1,1,1,0,0,direct_throttle,-0.04144051671028137,-0.02645265683531761,0.008691616356372833,-0.011310672387480736,0.007486018352210522,8.758940566622186e-06,0.0,0.13439999520778656,0.11572693288326263,0.09752672910690308,0.0,0.0,0.0,0.0,0.0,0.0,0.0,0.0,0.0,0.0,0.0,0.0,0.0,0.0,0.0,0.0,0.0,0.0,0.0,0.0,0.0,0.0,0.0,0.0,0.0,0.0,0.0,0.0,0.0,0.0,0.0,0.0,0.0,0.0,0.0,0.0,0.0,0.0,0.0,0.0,0.0,0.0,0.0,0.0,0.0,0.0,0.0,0.0,0.0,0.0,0.0,0.0,0.0,0.0,0,0.2985037565231323,0,0,0,0,0,0.0,0.0,0,1883203845,1354,335
827477062,5,428,4899,2695,68331652,68332,64888,384,-3076,1753,-538,556,-447,-533,28.0,-0.04107975214719772,0.12888985872268677,0.1061975434422493,16.945451736450195,-16.90239715576172,-10.280036926269531,-8.011709213256836,-7.607309341430664,-5.450367450714111,1584,1500,989,1500,2000,1503,1000,1000,1100,1500,1500,1100,1100,1538,1509,6,16,2396,2398,3,93.42,3.42,90.81,0.8099999999999999,1,1,0,1,2,1,1,1,1,1,0,0,direct_throttle,0.023033224046230316,-0.011398802511394024,-0.019136982038617134,-0.01124626025557518,0.007501441519707441,-1.9055689335800707e-05,0.0,0.13439999520778656,0.11572693288326263,0.09752672910690308,0.0,0.0,0.0,0.0,0.0,0.0,0.0,0.0,0.0,0.0,0.0,0.0,0.0,0.0,0.0,0.0,0.0,0.0,0.0,0.0,0.0,0.0,0.0,0.0,0.0,0.0,0.0,0.0,0.0,0.0,0.0,0.0,0.0,0.0,0.0,0.0,0.0,0.0,0.0,0.0,0.0,0.0,0.0,0.0,0.0,0.0,0.0,0.0,0.0,0.0,0.0,0.0,0.0,0.0,0,0.2985037565231323,0,0,0,0,0,0.0,0.0,0,2227649312,1354,335
827477062,5,428,4900,2695,68335682,68336,64892,372,-1974,3117,705,767,-549,-514,27.90625,0.015748407691717148,0.18537524342536926,0.13651925325393677,15.90727710723877,-20.607709884643555,-15.246223449707031,-6.961671829223633,-7.556588649749756,-5.506710052490234,1584,1500,989,1500,2000,1503,1000,1000,1100,1500,1500,1100,1100,1538,1509,10,20,2396,2398,3,93.42,3.42,90.81,0.8099999999999999,1,1,0,1,2,1,1,1,1,1,0,0,direct_throttle,-0.01418511662632227,0.021097540855407715,-0.015696058049798012,-0.014801917597651482,2.121313264069613e-05,-1.5801950212335214e-05,0.0,0.13439999520778656,0.11572693288326263,0.09752672910690308,0.0,0.0,0.0,0.0,0.0,0.0,0.0,0.0,0.0,0.0,0.0,0.0,0.0,0.0,0.0,0.0,0.0,0.0,0.0,0.0,0.0,0.0,0.0,0.0,0.0,0.0,0.0,0.0,0.0,0.0,0.0,0.0,0.0,0.0,0.0,0.0,0.0,0.0,0.0,0.0,0.0,0.0,0.0,0.0,0.0,0.0,0.0,0.0,0.0,0.0,0.0,0.0,0.0,0.0,0,0.2985037565231323,0,0,0,0,0,0.0,0.0,0,3109517498,1354,335
827477062,5,428,4901,2695,68339743,68340,64896,390,2499,-79,73,870,-556,-467,28.046875,-0.020871782675385475,-0.05669336020946503,0.10004418343305588,14.471722602844238,-24.309661865234375,-17.913143157958984,-6.745828628540039,-7.692254066467285,-5.578957557678223,1584,1500,989,1500,2000,1503,1000,1000,1100,1500,1500,1100,1100,1538,1509,14,4,2396,2399,3,93.42,3.42,90.81,0.8099999999999999,1,1,0,1,2,1,1,1,1,1,0,0,direct_throttle,-0.000536106526851654,0.028326502069830894,0.009896565228700638,-0.014787607826292515,2.9244174584164284e-05,1.023040294967359e-05,0.0,0.13439999520778656,0.11572693288326263,0.09752672910690308,0.0,0.0,0.0,0.0,0.0,0.0,0.0,0.0,0.0,0.0,0.0,0.0,0.0,0.0,0.0,0.0,0.0,0.0,0.0,0.0,0.0,0.0,0.0,0.0,0.0,0.0,0.0,0.0,0.0,0.0,0.0,0.0,0.0,0.0,0.0,0.0,0.0,0.0,0.0,0.0,0.0,0.0,0.0,0.0,0.0,0.0,0.0,0.0,0.0,0.0,0.0,0.0,0.0,0.0,0,0.2985037565231323,0,0,0,0,0,0.0,0.0,0,1707126464,1354,335
827477062,5,428,4902,2695,68343748,68344,64900,364,-672,268,410,747,-383,-535,27.84375,0.1161501556634903,-0.15912869572639465,0.034358277916908264,15.569507598876953,-24.223814010620117,-13.480806350708008,-7.858707904815674,-7.263518810272217,-5.640047550201416,1584,1500,989,1500,2000,1503,1000,1000,1100,1500,1500,1100,1100,1538,1509,18,8,2396,2399,3,93.42,3.42,90.81,0.8099999999999999,1,1,0,1,2,1,1,1,1,1,0,0,direct_throttle,0.0002681344049051404,-0.004269079305231571,0.03220899775624275,-0.014544131234288216,0.0036319373175501823,3.1428313377546147e-05,0.0,0.13439999520778656,0.11572693288326263,0.09752672910690308,0.0,0.0,0.0,0.0,0.0,0.0,0.0,0.0,0.0,0.0,0.0,0.0,0.0,0.0,0.0,0.0,0.0,0.0,0.0,0.0,0.0,0.0,0.0,0.0,0.0,0.0,0.0,0.0,0.0,0.0,0.0,0.0,0.0,0.0,0.0,0.0,0.0,0.0,0.0,0.0,0.0,0.0,0.0,0.0,0.0,0.0,0.0,0.0,0.0,0.0,0.0,0.0,0.0,0.0,0,0.2985037565231323,0,0,0,0,0,0.0,0.0,0,450398959,1354,335
827477062,5,428,4903,2695,68347778,68348,64904,356,2,3897,2196,507,-397,-543,27.78125,0.04369710758328438,-0.06335404515266418,0.11131878942251205,16.447425842285156,-18.809795379638672,-11.749908447265625,-8.769718170166016,-6.611049652099609,-5.689509391784668,1584,1500,989,1500,2000,1503,1000,1000,1100,1500,1500,1100,1100,1538,1509,2,12,2397,2399,3,93.42,3.42,90.81,0.8099999999999999,1,1,0,1,2,1,1,1,1,1,0,0,direct_throttle,-0.03286754712462425,-0.03838355839252472,0.01734592579305172,-0.014576751738786697,0.0035973787307739258,1.7445610865252092e-05,0.0,0.13439999520778656,0.11572693288326263,0.09752672910690308,0.0,0.0,0.0,0.0,0.0,0.0,0.0,0.0,0.0,0.0,0.0,0.0,0.0,0.0,0.0,0.0,0.0,0.0,0.0,0.0,0.0,0.0,0.0,0.0,0.0,0.0,0.0,0.0,0.0,0.0,0.0,0.0,0.0,0.0,0.0,0.0,0.0,0.0,0.0,0.0,0.0,0.0,0.0,0.0,0.0,0.0,0.0,0.0,0.0,0.0,0.0,0.0,0.0,0.0,0,0.2985037565231323,0,0,0,0,0,0.0,0.0,0,3309982200,1354,335
827477062,5,428,4912,2703,68383126,68384,64939,376,2992,5007,1758,1471,201,-2050,27.9375,-0.5062801837921143,-0.42059341073036194,0.6709742546081543,59.655555725097656,-46.27391052246094,5.542279243469238,-12.496620178222656,-10.524160385131836,-5.638174533843994,1581,1500,989,1500,2000,1503,1000,1000,1100,1500,1500,1100,1100,1538,1512,18,8,2398,2401,3,93.42,3.42,91.08,1.08,1,1,0,1,2,1,1,1,1,1,0,0,direct_throttle,0.0,0.0,0.0,-0.00332588329911232,0.00665176659822464,0.0,0.0,0.13439999520778656,0.11572693288326263,0.09752672910690308,0.0,0.0,0.0,0.0,0.0,0.0,0.0,0.0,0.0,0.0,0.0,0.0,0.0,0.0,0.0,0.0,0.0,0.0,0.0,0.0,0.0,0.0,0.0,0.0,0.0,0.0,0.0,0.0,0.0,0.0,0.0,0.0,0.0,0.0,0.0,0.0,0.0,0.0,0.0,0.0,0.0,0.0,0.0,0.0,0.0,0.0,0.0,0.0,0.0,0.0,0.0,0.0,0.0,0.0,0,0.2985037565231323,0,0,0,0,0,0.0,0.0,0,1900198870,1355,336
827477062,5,428,4913,2703,68387130,68388,64943,386,553,5606,2728,1230,376,-2169,28.015625,-0.3218176066875458,-0.32904988527297974,0.6536098122596741,64.17284393310547,-41.44312286376953,7.994872570037842,-13.024702072143555,-10.941019058227539,-5.613330841064453,1581,1500,989,1500,2000,1503,1000,1000,1100,1500,1500,1100,1100,1536,1512,2,12,2399,2401,3,93.24,3.2399999999999998,91.08,1.08,1,1,0,1,2,1,1,1,1,1,0,0,direct_throttle,-0.0056939939968287945,-0.026643220335245132,0.010261058807373047,-0.003326554549857974,0.00661653745919466,9.87902058113832e-06,0.0,0.13439999520778656,0.11572693288326263,0.09752672910690308,0.0,0.0,0.0,0.0,0.0,0.0,0.0,0.0,0.0,0.0,0.0,0.0,0.0,0.0,0.0,0.0,0.0,0.0,0.0,0.0,0.0,0.0,0.0,0.0,0.0,0.0,0.0,0.0,0.0,0.0,0.0,0.0,0.0,0.0,0.0,0.0,0.0,0.0,0.0,0.0,0.0,0.0,0.0,0.0,0.0,0.0,0.0,0.0,0.0,0.0,0.0,0.0,0.0,0.0,0,0.2985037565231323,0,0,0,0,0,0.0,0.0,0,2598159681,1355,336
827477062,5,428,4914,2703,68391159,68392,64947,368,-1003,17046,3535,1387,923,-2302,27.875,-0.41330042481422424,-0.25845080614089966,0.8917019367218018,68.80157470703125,-40.85017395019531,22.085540771484375,-13.467297554016113,-11.351126670837402,-5.547831058502197,1581,1500,989,1500,2000,1503,1000,1000,1100,1500,1500,1100,1100,1536,1512,6,16,2399,2401,3,93.24,3.2399999999999998,91.08,1.08,1,1,0,1,2,1,1,1,1,1,0,0,direct_throttle,0.04602266103029251,-0.09588223695755005,-0.08825277537107468,-0.003277891781181097,0.006552174221724272,-8.311453711939976e-05,0.0,0.13439999520778656,0.11572693288326263,0.09752672910690308,0.0,0.0,0.0,0.0,0.0,0.0,0.0,0.0,0.0,0.0,0.0,0.0,0.0,0.0,0.0,0.0,0.0,0.0,0.0,0.0,0.0,0.0,0.0,0.0,0.0,0.0,0.0,0.0,0.0,0.0,0.0,0.0,0.0,0.0,0.0,0.0,0.0,0.0,0.0,0.0,0.0,0.0,0.0,0.0,0.0,0.0,0.0,0.0,0.0,0.0,0.0,0.0,0.0,0.0,0,0.2985037565231323,0,0,0,0,0,0.0,0.0,0,2554303844,1355,336
827477062,5,428,4915,2703,68395193,68396,64951,370,-30242,32767,4920,1271,549,-3190,27.890625,-0.29799771308898926,1.3745816946029663,1.7275583744049072,90.52178955078125,-45.214744567871094,19.402957916259766,-13.165169715881348,-11.516444206237793,-5.455671310424805,1582,1500,989,1500,2000,1503,1000,1000,1100,1500,1500,1100,1100,1536,1512,10,20,2399,2401,3,93.24,3.2399999999999998,91.08,1.08,1,1,0,1,2,1,1,1,1,1,0,0,direct_throttle,0.019479304552078247,-0.06058459356427193,-0.35594210028648376,1.9003389752469957e-05,0.009620962664484978,-0.00034767051693052053,0.0,0.13439999520778656,0.11572693288326263,0.09752672910690308,0.0,0.0,0.0,0.0,0.0,0.0,0.0,0.0,0.0,0.0,0.0,0.0,0.0,0.0,0.0,0.0,0.0,0.0,0.0,0.0,0.0,0.0,0.0,0.0,0.0,0.0,0.0,0.0,0.0,0.0,0.0,0.0,0.0,0.0,0.0,0.0,0.0,0.0,0.0,0.0,0.0,0.0,0.0,0.0,0.0,0.0,0.0,0.0,0.0,0.0,0.0,0.0,0.0,0.0,0,0.2985037565231323,0,0,0,0,0,0.0,0.0,0,2960907906,1355,336
827477062,5,428,4916,2703,68399218,68400,64955,378,-16965,32767,10785,1483,1581,-1600,27.953125,-0.1963367909193039,0.4626297056674957,1.2620466947555542,71.56015014648438,-48.26398468017578,25.07554054260254,-12.868439674377441,-11.525246620178223,-5.389186382293701,1582,1500,989,1500,2000,1503,1000,1000,1100,1500,1500,1100,1100,1536,1514,14,4,2399,2402,3,93.24,3.2399999999999998,91.25999999999999,1.26,1,1,0,1,2,1,1,1,1,1,0,0,direct_throttle,-0.13011480867862701,-0.11044906079769135,-0.3320569396018982,-0.0001233031798619777,0.009575807489454746,-0.00031504727667197585,0.0,0.13439999520778656,0.11572693288326263,0.09752672910690308,0.0,0.0,0.0,0.0,0.0,0.0,0.0,0.0,0.0,0.0,0.0,0.0,0.0,0.0,0.0,0.0,0.0,0.0,0.0,0.0,0.0,0.0,0.0,0.0,0.0,0.0,0.0,0.0,0.0,0.0,0.0,0.0,0.0,0.0,0.0,0.0,0.0,0.0,0.0,0.0,0.0,0.0,0.0,0.0,0.0,0.0,0.0,0.0,0.0,0.0,0.0,0.0,0.0,0.0,0,0.2985037565231323,0,0,0,0,0,0.0,0.0,0,1171786455,1355,336
827477062,5,428,4917,2703,68403223,68404,64959,380,-32766,32767,-10249,1896,1896,-2065,27.96875,0.15085646510124207,0.9030305743217468,1.9121416807174683,69.1136245727539,-55.79778289794922,51.1614875793457,-12.65185546875,-11.577035903930664,-5.217750072479248,1582,1500,989,1500,2000,1503,1000,1000,1100,1500,1500,1100,1100,1536,1514,18,8,2399,2402,3,93.24,3.2399999999999998,91.25999999999999,1.26,1,1,0,1,2,1,1,1,1,1,0,0,direct_throttle,0.1321852207183838,-0.28716179728507996,-0.2931331694126129,-0.006806517951190472,0.02069796621799469,-0.00028046133229508996,0.0,0.13439999520778656,0.11572693288326263,0.09752672910690308,0.0,0.0,0.0,0.0,0.0,0.0,0.0,0.0,0.0,0.0,0.0,0.0,0.0,0.0,0.0,0.0,0.0,0.0,0.0,0.0,0.0,0.0,0.0,0.0,0.0,0.0,0.0,0.0,0.0,0.0,0.0,0.0,0.0,0.0,0.0,0.0,0.0,0.0,0.0,0.0,0.0,0.0,0.0,0.0,0.0,0.0,0.0,0.0,0.0,0.0,0.0,0.0,0.0,0.0,0,0.2985037565231323,0,0,0,0,0,0.0,0.0,0,3618902583,1355,336
827477062,5,428,4918,2703,68407256,68408,64963,370,11190,-23154,-32766,2874,2775,-1622,27.890625,1.503935694694519,0.6838334798812866,0.7212868332862854,71.1622314453125,-73.98088836669922,54.66252899169922,-12.163954734802246,-11.246204376220703,-5.03456449508667,1582,1500,989,1500,2000,1503,1000,1000,1100,1500,1500,1100,1100,1539,1514,2,12,2400,2402,3,93.50999999999999,3.51,91.25999999999999,1.26,1,1,0,1,2,1,1,1,1,1,0,0,direct_throttle,0.46520817279815674,-0.05973593145608902,0.2466568648815155,-0.011890767142176628,0.02774760127067566,0.0002485674631316215,0.0,0.13439999520778656,0.11572693288326263,0.09752672910690308,0.0,0.0,0.0,0.0,0.0,0.0,0.0,0.0,0.0,0.0,0.0,0.0,0.0,0.0,0.0,0.0,0.0,0.0,0.0,0.0,0.0,0.0,0.0,0.0,0.0,0.0,0.0,0.0,0.0,0.0,0.0,0.0,0.0,0.0,0.0,0.0,0.0,0.0,0.0,0.0,0.0,0.0,0.0,0.0,0.0,0.0,0.0,0.0,0.0,0.0,0.0,0.0,0.0,0.0,0,0.2985037565231323,0,0,0,0,0,0.0,0.0,0,1097127717,1355,336
827477062,5,428,4919,2703,68411290,68412,64967,378,13941,26898,-32766,3542,661,-60,27.953125,2.2777140140533447,0.08731025457382202,1.8761342763900757,17.810836791992188,-87.48454284667969,23.804000854492188,-11.903653144836426,-10.51909351348877,-4.8853654861450195,1582,1500,989,1500,2000,1503,1000,1000,1100,1500,1500,1100,1100,1539,1514,6,16,2400,2402,3,93.50999999999999,3.51,91.25999999999999,1.26,1,1,0,1,2,1,1,1,1,1,0,0,direct_throttle,0.04718353599309921,0.23062391579151154,-0.2106764167547226,-0.012311434373259544,0.028040030971169472,-0.00021251887665130198,0.0,0.13439999520778656,0.11572693288326263,0.09752672910690308,0.0,0.0,0.0,0.0,0.0,0.0,0.0,0.0,0.0,0.0,0.0,0.0,0.0,0.0,0.0,0.0,0.0,0.0,0.0,0.0,0.0,0.0,0.0,0.0,0.0,0.0,0.0,0.0,0.0,0.0,0.0,0.0,0.0,0.0,0.0,0.0,0.0,0.0,0.0,0.0,0.0,0.0,0.0,0.0,0.0,0.0,0.0,0.0,0.0,0.0,0.0,0.0,0.0,0.0,0,0.2985037565231323,0,0,0,0,0,0.0,0.0,0,820595993,1355,336
827477062,5,428,4928,2711,68447590,68448,65003,376,2221,32767,-2492,-2981,-1004,7838,27.9375,0.2995537519454956,-0.2092476636171341,2.8412630558013916,-221.92291259765625,98.48174285888672,-29.02166175842285,-4.75869083404541,-7.8890790939331055,-4.822484493255615,1582,1500,989,1500,2000,1503,1000,1000,1100,1500,1500,1100,1100,1545,1517,2,12,2402,2404,3,94.05,4.05,91.53,1.53,1,1,0,1,2,1,1,1,1,1,0,0,direct_throttle,-0.013938646763563156,-0.0027971435338258743,-0.12793602049350739,0.01860375888645649,-0.03191899135708809,-0.00012879913265351206,0.0,0.13439999520778656,0.11572693288326263,0.09752672910690308,0.0,0.0,0.0,0.0,0.0,0.0,0.0,0.0,0.0,0.0,0.0,0.0,0.0,0.0,0.0,0.0,0.0,0.0,0.0,0.0,0.0,0.0,0.0,0.0,0.0,0.0,0.0,0.0,0.0,0.0,0.0,0.0,0.0,0.0,0.0,0.0,0.0,0.0,0.0,0.0,0.0,0.0,0.0,0.0,0.0,0.0,0.0,0.0,0.0,0.0,0.0,0.0,0.0,0.0,0,0.2985037565231323,0,0,0,0,0,0.0,0.0,0,3443312390,1356,337
827477062,5,428,4929,2711,68451619,68452,65007,396,11643,20026,-18832,-3601,554,6642,28.09375,1.319812536239624,-0.18952128291130066,3.122762441635132,-209.53900146484375,102.03160095214844,-5.789453506469727,-3.797600269317627,-7.122717380523682,-4.895590305328369,1582,1500,989,1500,2000,1503,1000,1000,1100,1500,1500,1100,1100,1545,1517,6,16,2402,2404,3,94.05,4.05,91.53,1.53,1,1,0,1,2,1,1,1,1,1,0,0,direct_throttle,0.12729057669639587,0.13500072062015533,0.036824800074100494,0.0187456626445055,-0.03178062289953232,3.703643233166076e-05,0.0,0.13439999520778656,0.11572693288326263,0.09752672910690308,0.0,0.0,0.0,0.0,0.0,0.0,0.0,0.0,0.0,0.0,0.0,0.0,0.0,0.0,0.0,0.0,0.0,0.0,0.0,0.0,0.0,0.0,0.0,0.0,0.0,0.0,0.0,0.0,0.0,0.0,0.0,0.0,0.0,0.0,0.0,0.0,0.0,0.0,0.0,0.0,0.0,0.0,0.0,0.0,0.0,0.0,0.0,0.0,0.0,0.0,0.0,0.0,0.0,0.0,0,0.2985037565231323,0,0,0,0,0,0.0,0.0,0,2831356378,1356,337
827477062,5,428,4930,2711,68455652,68456,65011,378,5007,17729,-30754,-3709,754,6434,27.953125,1.2537994384765625,-0.19437956809997559,2.724820375442505,-198.9540252685547,119.03273010253906,19.383981704711914,-3.0011887550354004,-6.272503852844238,-4.8346943855285645,1582,1500,989,1500,2000,1503,1000,1000,1100,1500,1500,1100,1100,1545,1517,10,20,2402,2404,3,94.05,4.05,91.53,1.53,1,1,0,1,2,1,1,1,1,1,0,0,direct_throttle,0.2820403575897217,0.04852069169282913,-0.016009828075766563,0.018432646989822388,-0.02847067266702652,-1.6133839380927384e-05,0.0,0.13439999520778656,0.11572693288326263,0.09752672910690308,0.0,0.0,0.0,0.0,0.0,0.0,0.0,0.0,0.0,0.0,0.0,0.0,0.0,0.0,0.0,0.0,0.0,0.0,0.0,0.0,0.0,0.0,0.0,0.0,0.0,0.0,0.0,0.0,0.0,0.0,0.0,0.0,0.0,0.0,0.0,0.0,0.0,0.0,0.0,0.0,0.0,0.0,0.0,0.0,0.0,0.0,0.0,0.0,0.0,0.0,0.0,0.0,0.0,0.0,0,0.2985037565231323,0,0,0,0,0,0.0,0.0,0,3528208034,1356,337
827477062,5,428,4931,2711,68459688,68460,65015,382,12514,19732,-9702,-4097,-2031,5998,27.984375,0.42731738090515137,-0.6007972955703735,2.4969053268432617,-191.5152130126953,117.12611389160156,-22.997011184692383,-2.327953815460205,-5.519557476043701,-4.82363224029541,1582,1500,989,1500,2000,1503,1000,1000,1100,1500,1500,1100,1100,1545,1505,14,4,2402,2405,3,94.05,4.05,90.45,0.44999999999999996,1,1,0,1,2,1,1,1,1,1,0,0,direct_throttle,0.08221867680549622,0.10250530391931534,-0.016865959390997887,0.01823163963854313,-0.028416050598025322,-1.7030317394528538e-05,0.0,0.13439999520778656,0.11572693288326263,0.09752672910690308,0.0,0.0,0.0,0.0,0.0,0.0,0.0,0.0,0.0,0.0,0.0,0.0,0.0,0.0,0.0,0.0,0.0,0.0,0.0,0.0,0.0,0.0,0.0,0.0,0.0,0.0,0.0,0.0,0.0,0.0,0.0,0.0,0.0,0.0,0.0,0.0,0.0,0.0,0.0,0.0,0.0,0.0,0.0,0.0,0.0,0.0,0.0,0.0,0.0,0.0,0.0,0.0,0.0,0.0,0,0.2985037565231323,0,0,0,0,0,0.0,0.0,0,2856195157,1356,337
827477062,5,428,4932,2711,68463716,68464,65019,348,15089,6782,-21258,-2258,-829,5559,27.71875,-0.0454481840133667,-1.1351358890533447,1.9576268196105957,-177.02401733398438,88.71477508544922,-53.94236755371094,-1.9261380434036255,-5.109827041625977,-5.046950340270996,1582,1500,989,1500,2000,1503,1000,1000,1100,1500,1500,1100,1100,1545,1505,18,8,2402,2405,3,94.05,4.05,90.45,0.44999999999999996,1,1,0,1,2,1,1,1,1,1,0,0,direct_throttle,0.2664446234703064,0.12309706211090088,0.14350788295269012,0.02064010128378868,-0.033030394464731216,0.00013170999591238797,0.0,0.13439999520778656,0.11572693288326263,0.09752672910690308,0.0,0.0,0.0,0.0,0.0,0.0,0.0,0.0,0.0,0.0,0.0,0.0,0.0,0.0,0.0,0.0,0.0,0.0,0.0,0.0,0.0,0.0,0.0,0.0,0.0,0.0,0.0,0.0,0.0,0.0,0.0,0.0,0.0,0.0,0.0,0.0,0.0,0.0,0.0,0.0,0.0,0.0,0.0,0.0,0.0,0.0,0.0,0.0,0.0,0.0,0.0,0.0,0.0,0.0,0,0.2985037565231323,0,0,0,0,0,0.0,0.0,0,4169348775,1356,337
827477062,5,428,4933,2711,68467747,68468,65023,378,19982,-7176,-6816,-2367,1911,5547,27.953125,-0.2585636377334595,-1.2036560773849487,1.2721946239471436,-167.21636962890625,96.82626342773438,1.192605972290039,-1.7193728685379028,-4.865030765533447,-5.146686553955078,1579,1500,989,1500,2000,1503,1000,1000,1100,1500,1500,1100,1100,1537,1505,2,12,2403,2405,3,93.33,3.33,90.45,0.44999999999999996,1,1,0,1,2,1,1,1,1,1,0,0,direct_throttle,0.08526992052793503,0.23685957491397858,0.16169357299804688,0.020478852093219757,-0.03290065377950668,0.00016278443217743188,0.0,0.13439999520778656,0.11572693288326263,0.09752672910690308,0.0,0.0,0.0,0.0,0.0,0.0,0.0,0.0,0.0,0.0,0.0,0.0,0.0,0.0,0.0,0.0,0.0,0.0,0.0,0.0,0.0,0.0,0.0,0.0,0.0,0.0,0.0,0.0,0.0,0.0,0.0,0.0,0.0,0.0,0.0,0.0,0.0,0.0,0.0,0.0,0.0,0.0,0.0,0.0,0.0,0.0,0.0,0.0,0.0,0.0,0.0,0.0,0.0,0.0,0,0.2985037565231323,0,0,0,0,0,0.0,0.0,0,3599140427,1356,337
827477062,5,428,4934,2711,68471779,68472,65027,374,7600,8475,-32766,-1727,-548,5944,27.921875,0.21152633428573608,-1.467421531677246,0.6442219018936157,-175.7954559326172,86.10601043701172,-19.08648681640625,-2.0164175033569336,-4.716894626617432,-5.174583911895752,1579,1500,989,1500,2000,1503,1000,1000,1100,1500,1500,1100,1100,1537,1505,6,16,2403,2405,3,93.33,3.33,90.45,0.44999999999999996,1,1,0,1,2,1,1,1,1,1,0,0,direct_throttle,0.38874033093452454,-0.06084646284580231,0.1600244641304016,0.02078077383339405,-0.033199895173311234,0.00015966457431204617,0.0,0.13439999520778656,0.11572693288326263,0.09752672910690308,0.0,0.0,0.0,0.0,0.0,0.0,0.0,0.0,0.0,0.0,0.0,0.0,0.0,0.0,0.0,0.0,0.0,0.0,0.0,0.0,0.0,0.0,0.0,0.0,0.0,0.0,0.0,0.0,0.0,0.0,0.0,0.0,0.0,0.0,0.0,0.0,0.0,0.0,0.0,0.0,0.0,0.0,0.0,0.0,0.0,0.0,0.0,0.0,0.0,0.0,0.0,0.0,0.0,0.0,0,0.2985037565231323,0,0,0,0,0,0.0,0.0,0,3849428754,1356,337
827477062,5,428,4935,2711,68475811,68476,65031,380,-4883,24717,-10704,-2539,-4049,4416,27.96875,-0.2462506890296936,-0.41084468364715576,1.7282376289367676,-152.94491577148438,97.02542114257812,-116.21534729003906,-1.7720171213150024,-4.59222936630249,-5.5169196128845215,1578,1500,989,1500,2000,1503,1000,1000,1100,1500,1500,1100,1100,1537,1505,10,20,2403,2405,3,93.33,3.33,90.45,0.44999999999999996,1,1,0,1,2,1,1,1,1,1,0,0,direct_throttle,0.1913215070962906,-0.15637052059173584,-0.031319618225097656,0.015317371115088463,-0.0455322340130806,-3.153091165586375e-05,0.0,0.13439999520778656,0.11572693288326263,0.09752672910690308,0.0,0.0,0.0,0.0,0.0,0.0,0.0,0.0,0.0,0.0,0.0,0.0,0.0,0.0,0.0,0.0,0.0,0.0,0.0,0.0,0.0,0.0,0.0,0.0,0.0,0.0,0.0,0.0,0.0,0.0,0.0,0.0,0.0,0.0,0.0,0.0,0.0,0.0,0.0,0.0,0.0,0.0,0.0,0.0,0.0,0.0,0.0,0.0,0.0,0.0,0.0,0.0,0.0,0.0,0,0.2985037565231323,0,0,0,0,0,0.0,0.0,0,222908557,1356,337
827477062,5,428,4944,2719,68511143,68512,65066,378,13909,-4050,-8779,-690,-2233,-189,27.953125,0.35753417015075684,-0.023020565509796143,0.8081434369087219,-0.597109317779541,36.78004455566406,-72.52583312988281,-2.2870945930480957,-3.498194932937622,-8.016132354736328,1579,1500,989,1500,2000,1503,1000,1000,1100,1500,1500,1100,1100,1522,1532,6,16,2405,2407,3,91.97999999999999,1.98,92.88,2.88,1,1,0,1,2,1,1,1,1,1,0,0,direct_throttle,0.11480143666267395,0.13973931968212128,0.16902460157871246,0.011084108613431454,-0.019069626927375793,0.0001627315068617463,0.0,0.13439999520778656,0.11572693288326263,0.09752672910690308,0.0,0.0,0.0,0.0,0.0,0.0,0.0,0.0,0.0,0.0,0.0,0.0,0.0,0.0,0.0,0.0,0.0,0.0,0.0,0.0,0.0,0.0,0.0,0.0,0.0,0.0,0.0,0.0,0.0,0.0,0.0,0.0,0.0,0.0,0.0,0.0,0.0,0.0,0.0,0.0,0.0,0.0,0.0,0.0,0.0,0.0,0.0,0.0,0.0,0.0,0.0,0.0,0.0,0.0,0,0.2985037565231323,0,0,0,0,0,0.0,0.0,0,311358029,1357,338
827477062,5,428,4945,2719,68515171,68516,65070,378,10646,6061,-13125,-1160,-262,-795,27.953125,0.7337720394134521,-0.3043414354324341,0.8577673435211182,15.509671211242676,37.86579895019531,-31.85634994506836,-2.416637897491455,-2.9648008346557617,-8.218694686889648,1579,1500,989,1500,2000,1503,1000,1000,1100,1500,1500,1100,1100,1522,1495,10,0,2405,2408,3,91.97999999999999,1.98,89.55,-0.44999999999999996,1,1,0,1,2,1,1,1,1,1,0,0,direct_throttle,0.07977917045354843,0.11067590117454529,-0.053507424890995026,0.01342486497014761,0.0027767177671194077,-5.188961586100049e-05,0.0,0.13439999520778656,0.11572693288326263,0.09752672910690308,0.0,0.0,0.0,0.0,0.0,0.0,0.0,0.0,0.0,0.0,0.0,0.0,0.0,0.0,0.0,0.0,0.0,0.0,0.0,0.0,0.0,0.0,0.0,0.0,0.0,0.0,0.0,0.0,0.0,0.0,0.0,0.0,0.0,0.0,0.0,0.0,0.0,0.0,0.0,0.0,0.0,0.0,0.0,0.0,0.0,0.0,0.0,0.0,0.0,0.0,0.0,0.0,0.0,0.0,0,0.2985037565231323,0,0,0,0,0,0.0,0.0,0,2954664638,1357,338
827477062,5,428,4946,2719,68519193,68520,65074,372,3622,8249,8417,-1380,-897,-1122,27.90625,0.04261110723018646,-0.4068639278411865,0.5953754782676697,27.81960678100586,43.2986946105957,-27.724374771118164,-3.025434970855713,-2.4504568576812744,-8.33022403717041,1580,1500,989,1500,2000,1503,1000,1000,1100,1500,1500,1100,1100,1522,1495,14,4,2405,2408,3,91.97999999999999,1.98,89.55,-0.44999999999999996,1,1,0,1,2,1,1,1,1,1,0,0,direct_throttle,-0.12410631775856018,-0.024697281420230865,0.0052428534254431725,0.013226521201431751,0.0026454252656549215,5.115776275488315e-06,0.0,0.13439999520778656,0.11572693288326263,0.09752672910690308,0.0,0.0,0.0,0.0,0.0,0.0,0.0,0.0,0.0,0.0,0.0,0.0,0.0,0.0,0.0,0.0,0.0,0.0,0.0,0.0,0.0,0.0,0.0,0.0,0.0,0.0,0.0,0.0,0.0,0.0,0.0,0.0,0.0,0.0,0.0,0.0,0.0,0.0,0.0,0.0,0.0,0.0,0.0,0.0,0.0,0.0,0.0,0.0,0.0,0.0,0.0,0.0,0.0,0.0,0,0.2985037565231323,0,0,0,0,0,0.0,0.0,0,2579716929,1357,338
827477062,5,428,4947,2719,68523206,68524,65078,372,1874,3394,5968,-907,-2049,-1215,27.90625,-0.12194522470235825,-0.47914889454841614,0.4641554057598114,33.219486236572266,35.359588623046875,-50.30011749267578,-3.7346816062927246,-2.4172468185424805,-8.491775512695312,1580,1500,989,1500,2000,1503,1000,1000,1100,1500,1500,1100,1100,1522,1495,18,8,2405,2408,3,91.97999999999999,1.98,89.55,-0.44999999999999996,1,1,0,1,2,1,1,1,1,1,0,0,direct_throttle,-0.06722312420606613,-0.01439792662858963,0.023566875606775284,0.014695748686790466,0.004401859827339649,2.2524549422087148e-05,0.0,0.13439999520778656,0.11572693288326263,0.09752672910690308,0.0,0.0,0.0,0.0,0.0,0.0,0.0,0.0,0.0,0.0,0.0,0.0,0.0,0.0,0.0,0.0,0.0,0.0,0.0,0.0,0.0,0.0,0.0,0.0,0.0,0.0,0.0,0.0,0.0,0.0,0.0,0.0,0.0,0.0,0.0,0.0,0.0,0.0,0.0,0.0,0.0,0.0,0.0,0.0,0.0,0.0,0.0,0.0,0.0,0.0,0.0,0.0,0.0,0.0,0,0.2985037565231323,0,0,0,0,0,0.0,0.0,0,1275998892,1357,338
827477062,5,428,4948,2719,68527228,68528,65082,366,4627,8804,4042,-1043,-1875,-1235,27.859375,0.1543244868516922,-0.47826895117759705,0.6177748441696167,36.58012390136719,34.04225540161133,-57.031246185302734,-4.372856140136719,-2.184227705001831,-8.72332763671875,1581,1500,989,1500,2000,1503,1000,1000,1100,1500,1500,1100,1100,1523,1495,2,12,2406,2408,3,92.07,2.07,89.55,-0.44999999999999996,1,1,0,1,2,1,1,1,1,1,0,0,direct_throttle,-0.0827731266617775,-0.02586609497666359,-0.015311136841773987,0.013067095540463924,0.005234005860984325,-1.5169577636697795e-05,0.0,0.13439999520778656,0.11572693288326263,0.09752672910690308,0.0,0.0,0.0,0.0,0.0,0.0,0.0,0.0,0.0,0.0,0.0,0.0,0.0,0.0,0.0,0.0,0.0,0.0,0.0,0.0,0.0,0.0,0.0,0.0,0.0,0.0,0.0,0.0,0.0,0.0,0.0,0.0,0.0,0.0,0.0,0.0,0.0,0.0,0.0,0.0,0.0,0.0,0.0,0.0,0.0,0.0,0.0,0.0,0.0,0.0,0.0,0.0,0.0,0.0,0,0.2985037565231323,0,0,0,0,0,0.0,0.0,0,954927693,1357,338
827477062,5,428,4949,2719,68531261,68532,65086,380,3285,7535,5994,-1033,-605,-1775,27.96875,0.10308195650577545,-0.34170109033584595,0.8213972449302673,49.284271240234375,33.05942916870117,-36.088016510009766,-4.85215950012207,-1.8813011646270752,-8.923916816711426,1582,1500,989,1500,2000,1503,1000,1000,1100,1500,1500,1100,1100,1523,1495,6,16,2406,2408,3,92.07,2.07,89.55,-0.44999999999999996,1,1,0,1,2,1,1,1,1,1,0,0,direct_throttle,-0.091877281665802,0.0019176292698830366,0.014460297301411629,0.013056082651019096,0.005261390935629606,1.4586758879886474e-05,0.0,0.13439999520778656,0.11572693288326263,0.09752672910690308,0.0,0.0,0.0,0.0,0.0,0.0,0.0,0.0,0.0,0.0,0.0,0.0,0.0,0.0,0.0,0.0,0.0,0.0,0.0,0.0,0.0,0.0,0.0,0.0,0.0,0.0,0.0,0.0,0.0,0.0,0.0,0.0,0.0,0.0,0.0,0.0,0.0,0.0,0.0,0.0,0.0,0.0,0.0,0.0,0.0,0.0,0.0,0.0,0.0,0.0,0.0,0.0,0.0,0.0,0,0.2985037565231323,0,0,0,0,0,0.0,0.0,0,501930094,1357,338
827477062,5,428,4950,2719,68535294,68536,65090,386,-9212,14395,10238,-758,-1373,-2276,28.015625,0.1451152265071869,0.11492565274238586,1.019187092781067,61.57223892211914,28.183544158935547,-37.830718994140625,-5.125988483428955,-1.506716251373291,-9.070246696472168,1582,1500,989,1500,2000,1503,1000,1000,1100,1500,1500,1100,1100,1523,1524,10,0,2406,2409,3,92.07,2.07,92.16,2.16,1,1,0,1,2,1,1,1,1,1,0,0,direct_throttle,-0.1699473112821579,-0.11795693635940552,-0.0008373642340302467,0.015503108501434326,0.012943074107170105,-8.438504437435768e-07,0.0,0.13439999520778656,0.11572693288326263,0.09752672910690308,0.0,0.0,0.0,0.0,0.0,0.0,0.0,0.0,0.0,0.0,0.0,0.0,0.0,0.0,0.0,0.0,0.0,0.0,0.0,0.0,0.0,0.0,0.0,0.0,0.0,0.0,0.0,0.0,0.0,0.0,0.0,0.0,0.0,0.0,0.0,0.0,0.0,0.0,0.0,0.0,0.0,0.0,0.0,0.0,0.0,0.0,0.0,0.0,0.0,0.0,0.0,0.0,0.0,0.0,0,0.2985037565231323,0,0,0,0,0,0.0,0.0,0,1182244165,1357,338
827477062,5,428,4951,2719,68539328,68540,65094,394,-1680,858,5108,-1118,-2169,-2544,28.078125,0.22342033684253693,-0.06314432621002197,0.7258080840110779,73.24752807617188,34.693321228027344,-56.28744888305664,-5.314205646514893,-1.1344493627548218,-9.27106761932373,1583,1500,989,1500,2000,1503,1000,1000,1100,1500,1500,1100,1100,1523,1524,14,4,2406,2409,3,92.07,2.07,92.16,2.16,1,1,0,1,2,1,1,1,1,1,0,0,direct_throttle,-0.05572614073753357,-0.02017354592680931,0.1044420450925827,0.015618069097399712,0.013041491620242596,0.0001052510560839437,0.0,0.13439999520778656,0.11572693288326263,0.09752672910690308,0.0,0.0,0.0,0.0,0.0,0.0,0.0,0.0,0.0,0.0,0.0,0.0,0.0,0.0,0.0,0.0,0.0,0.0,0.0,0.0,0.0,0.0,0.0,0.0,0.0,0.0,0.0,0.0,0.0,0.0,0.0,0.0,0.0,0.0,0.0,0.0,0.0,0.0,0.0,0.0,0.0,0.0,0.0,0.0,0.0,0.0,0.0,0.0,0.0,0.0,0.0,0.0,0.0,0.0,0,0.2985037565231323,0,0,0,0,0,0.0,0.0,0,2511645869,1357,338
827477062,5,428,4958,2725,81743807,81744,78191,388,-146,7289,1227,-149,-164,-281,28.03125,-0.1668042689561844,0.05729160085320473,0.9068363308906555,8.592400550842285,4.223097324371338,-4.705074787139893,0.5321938991546631,-1.0741825103759766,-7.348752975463867,1583,1500,1205,1500,2000,1503,1000,1000,1272,1557,1536,1809,1821,1531,1490,16,7,3059,3067,3,92.78999999999999,2.79,89.1,-0.8999999999999999,1,1,1,1,1,1,1,0,1,1,0,0,stabilized_mix,0.008128189481794834,0.06697496026754379,-0.019867146387696266,0.0014636833220720291,7.433068822138011e-05,-3.9958194975042716e-05,0.0,0.13279999792575836,-0.0014636833220720291,0.13272567093372345,0.0,0.0,0.0,0.0,0.0,0.0,0.0,0.0,0.0,0.0,0.0,0.0,0.0,0.0,0.0,0.0,0.0,0.0,0.25140130519866943,-0.1245381087064743,13.40733528137207,0.018748829141259193,0.009286903776228428,-0.02994256094098091,-0.03587714582681656,-0.02675715833902359,-0.05312243103981018,-0.056154437363147736,-0.0893579050898552,0.0003419816493988037,0.041059523820877075,1.4490564353764057e-05,13.410270690917969,6.632682800292969,6.777588367462158,1809.0,1821.0,0.0,0.0,0.058373965322971344,0.03625636175274849,-0.12597055733203888,-0.06753967702388763,-0.054984718561172485,-0.0009380538249388337,0.14996567368507385,0.07370695471763611,-0.08211904764175415,0.10081664472818375,0.06184985861182213,1.4490526154986583e-05,1.0,0.28878095746040344,0.857162356376648,0,0.0,0,0,0,0,0,0.0,0.0,0,2047550231,1358,339
827477062,5,428,4959,2725,81747766,81748,78195,412,2092,7395,468,-22,-156,-255,28.21875,-0.16193196177482605,-0.07064522057771683,0.8866655230522156,8.121537208557129,2.268064022064209,-5.527967929840088,0.47585928440093994,-1.2283484935760498,-7.37034797668457,1583,1500,1213,1500,2000,1503,1000,1000,1279,1553,1525,1808,1822,1531,1490,20,11,3059,3067,3,92.78999999999999,2.79,89.1,-0.8999999999999999,1,1,1,1,1,1,1,0,1,1,0,0,stabilized_mix,0.011254617013037205,0.31906139850616455,0.004595591686666012,0.0014982391148805618,0.000893699296284467,-8.824830001685768e-05,0.0,0.13279999792575836,-0.0014982391148805618,0.13190630078315735,0.0,0.0,0.0,0.0,0.0,0.0,0.0,0.0,0.0,0.0,0.0,0.0,0.0,0.0,0.0,0.0,0.0,0.0,0.2874770760536194,-0.11134959757328033,13.406726837158203,0.021439462900161743,0.008303401991724968,-0.02544129267334938,-0.03348749130964279,-0.014363081194460392,-0.050207868218421936,-0.0391823872923851,-0.08393863588571548,0.001095801591873169,0.04824062064290047,1.7267768271267414e-05,13.410270690917969,6.6187968254089355,6.791474342346191,1808.0,1822.0,0.0,0.0,0.0548177994787693,0.02531214989721775,-0.12670011818408966,-0.06304293125867844,-0.04674290120601654,-0.0008484640857204795,0.14174756407737732,0.039585184305906296,-0.09648124128580093,0.09471823275089264,0.04318712651729584,1.726774644339457e-05,1.0,0.27131256461143494,0.857162356376648,0,0.0,0,0,0,0,0,0.0,0.0,0,760090479,1358,339
827477062,5,428,4960,2725,81751802,81752,78199,404,582,8217,-67,20,-100,-240,28.15625,-0.08622686564922333,-0.11580196768045425,0.9065091013908386,7.784241199493408,0.016393721103668213,-4.01557731628418,0.33232346177101135,-1.3468003273010254,-7.389540672302246,1583,1500,1213,1500,2000,1503,1000,1000,1279,1550,1512,1809,1820,1531,1490,2,15,3060,3067,3,92.78999999999999,2.79,89.1,-0.8999999999999999,1,1,1,1,1,1,1,0,1,1,0,0,stabilized_mix,0.10935243964195251,0.6906116604804993,0.06826936453580856,0.0017045027343556285,0.0031064862851053476,9.925346967065707e-05,0.0,0.13279999792575836,-0.0017045027343556285,0.12969350814819336,0.0,0.0,0.0,0.0,0.0,0.0,0.0,0.0,0.0,0.0,0.0,0.0,0.0,0.0,0.0,0.0,0.0,0.0,0.31519412994384766,-0.0777595043182373,13.406340599060059,0.023506494238972664,0.005798536352813244,-0.019540265202522278,-0.030263738706707954,-0.00010426266817376018,-0.04812261462211609,-0.019207103177905083,-0.07844267040491104,0.0017657577991485596,0.035042524337768555,1.2882868759334087e-05,13.410270690917969,6.640721321105957,6.76954984664917,1809.0,1820.0,0.0,0.0,0.05121609568595886,0.012412533164024353,-0.12745267152786255,-0.0569753497838974,-0.03592151403427124,-0.0007028073887340724,0.1358606368303299,0.0002861244138330221,-0.07008504867553711,0.08853048086166382,0.021185079589486122,1.2882897863164544e-05,1.0,0.2535882592201233,0.857162356376648,0,0.0,0,0,0,0,0,0.0,0.0,0,1531216817,1358,339
827477062,5,428,4961,2725,81755830,81756,78203,386,-3240,7362,-2886,104,2,-226,28.015625,0.09383034706115723,0.0502350851893425,0.9176880717277527,7.866626262664795,-1.9289240837097168,-3.0825843811035156,0.2866328954696655,-1.3196345567703247,-7.405388832092285,1583,1500,1221,1500,2000,1503,1000,1000,1286,1550,1500,1810,1819,1531,1490,6,19,3060,3067,3,92.78999999999999,2.79,89.1,-0.8999999999999999,1,1,1,1,1,1,1,0,1,1,0,0,stabilized_mix,0.5100417137145996,0.770357608795166,0.12588898837566376,0.003363628638908267,0.004735991824418306,0.0005382056697271764,0.0,0.13279999792575836,-0.003363628638908267,0.12806400656700134,0.0,0.0,0.0,0.0,0.0,0.0,0.0,0.0,0.0,0.0,0.0,0.0,0.0,0.0,0.0,0.0,0.0,0.0,0.3088376224040985,-0.06706931442022324,13.406545639038086,0.023032257333397865,0.005001360084861517,-0.012522307224571705,-0.029849084094166756,0.012208320200443268,-0.04863075166940689,2.756369394774083e-05,-0.0784570500254631,0.00231894850730896,0.026900622993707657,1.022685319185257e-05,13.410270690917969,6.654001235961914,6.756269931793213,1810.0,1819.0,0.0,0.0,0.051216937601566315,-2.274015059811063e-05,-0.12809011340141296,-0.05619588494300842,-0.02301870658993721,-0.0006260093068704009,0.13729852437973022,-0.03366607427597046,-0.053801245987415314,0.08854520320892334,-2.9348768293857574e-05,1.0226849553873762e-05,1.0,0.2536304295063019,0.857162356376648,0,0.0,0,0,0,0,0,0.0,0.0,0,3322467205,1358,339
827477062,5,428,4962,2725,81759868,81760,78207,400,-3193,6015,-1877,111,-201,-170,28.125,0.1371908038854599,0.02708427608013153,0.895470917224884,6.305394172668457,-1.6442737579345703,-8.88662338256836,0.26532307267189026,-1.181691288948059,-7.437075614929199,1583,1500,1221,1500,2000,1503,1000,1000,1286,1540,1500,1803,1827,1531,1490,10,23,3060,3067,3,92.78999999999999,2.79,89.1,-0.8999999999999999,1,1,1,1,1,1,1,0,1,1,0,0,stabilized_mix,1.0206377506256104,0.7913986444473267,0.25849324464797974,0.006717889569699764,0.007825162261724472,0.0014626169577240944,0.0,0.13279999792575836,-0.006717889569699764,0.12497483193874359,0.0,0.0,0.0,0.0,0.0,0.0,0.0,0.0,0.0,0.0,0.0,0.0,0.0,0.0,0.0,0.0,0.0,0.0,0.2765592038631439,-0.062086328864097595,13.407275199890137,0.020624622702598572,0.00462977634742856,-0.011232806369662285,-0.024365106597542763,0.010396305471658707,-0.038973867893218994,-5.3928968554828316e-05,-0.06316999346017838,0.003425031900405884,0.07755041867494583,2.8341426514089108e-05,13.410270690917969,6.5634284019470215,6.8468427658081055,1803.0,1827.0,0.0,0.0,0.041246071457862854,2.514544758014381e-05,-0.12808789312839508,-0.04587344825267792,-0.020670529454946518,-0.0013347280910238624,0.11004988849163055,-0.028697989881038666,-0.15510083734989166,0.07131858170032501,5.8586010709404945e-05,2.834140650520567e-05,1.0,0.20428620278835297,0.857162356376648,0,0.0,0,0,0,0,0,0.0,0.0,0,3117414943,1358,339
827477062,5,428,4963,2725,81763905,81764,78211,400,-4729,4900,-1075,91,-213,-221,28.125,0.05375806987285614,0.01633422076702118,0.901290774345398,6.708592891693115,-0.9918828010559082,-11.588644027709961,0.19418089091777802,-1.124574899673462,-7.485020160675049,1583,1500,1230,1500,2000,1503,1000,1000,1293,1542,1503,1800,1830,1531,1490,14,27,3060,3067,3,92.78999999999999,2.79,89.1,-0.8999999999999999,1,1,1,1,1,1,1,0,1,1,0,0,stabilized_mix,1.2504981756210327,0.9140276908874512,0.3013494312763214,0.009471560828387737,0.008622244000434875,0.002706406870856881,0.0,0.13279999792575836,-0.009471560828387737,0.12417775392532349,0.0,0.0,0.0,0.0,0.0,0.0,0.0,0.0,0.0,0.0,0.0,0.0,0.0,0.0,0.0,0.0,0.0,0.0,0.26319363713264465,-0.04543985053896904,13.407610893249512,0.01962764747440815,0.003388442797586322,-0.012481559999287128,-0.02470545843243599,0.006271339952945709,-0.04146897792816162,-0.0051232511177659035,-0.06605098396539688,0.005098611116409302,0.10112999379634857,3.718002699315548e-05,13.410270690917969,6.519235610961914,6.891035556793213,1800.0,1830.0,0.0,0.0,0.04312543198466301,0.0032985813450068235,-0.12794660031795502,-0.04651351273059845,-0.022966790944337845,-0.0022348063066601753,0.11708703637123108,-0.017311621457338333,-0.20225998759269714,0.0745655819773674,0.0056559317745268345,3.7180008803261444e-05,1.0,0.2135869562625885,0.857162356376648,0,0.0,0,0,0,0,0,0.0,0.0,0,4187442732,1358,339
827477062,5,428,4964,2725,81767933,81768,78215,404,-6283,7332,-518,198,-77,-318,28.15625,0.04008429870009422,0.21319249272346497,0.9136893153190613,8.484417915344238,-2.5392379760742188,-8.371101379394531,0.24750201404094696,-1.0978138446807861,-7.526961326599121,1583,1500,1230,1500,2000,1503,1000,1000,1293,1553,1493,1804,1826,1531,1490,18,31,3060,3067,3,92.78999999999999,2.79,89.1,-0.8999999999999999,1,1,1,1,1,1,1,0,1,1,0,0,stabilized_mix,1.3859901428222656,0.724359929561615,0.24607203900814056,0.014766756445169449,0.011964832432568073,0.0037926631048321724,0.0,0.13279999792575836,-0.014766756445169449,0.12083516269922256,0.0,0.0,0.0,0.0,0.0,0.0,0.0,0.0,0.0,0.0,0.0,0.0,0.0,0.0,0.0,0.0,0.0,0.0,0.256931334733963,-0.057917866855859756,13.407683372497559,0.019160646945238113,0.004318932071328163,-0.006856169551610947,-0.031232059001922607,0.016079220920801163,-0.05245371162891388,0.010216543450951576,-0.08346406370401382,0.006562650203704834,0.07305163890123367,2.786505501717329e-05,13.410270690917969,6.565810203552246,6.844460964202881,1804.0,1826.0,0.0,0.0,0.054477836936712265,-0.006625814829021692,-0.12845024466514587,-0.058798834681510925,-0.012598118744790554,-0.0026033627800643444,0.14808101952075958,-0.0443180613219738,-0.14610327780246735,0.09418375790119171,-0.01126417238265276,2.7865000447491184e-05,1.0,0.26978161931037903,0.857162356376648,0,0.0,0,0,0,0,0,0.0,0.0,0,2001583950,1358,339
827477062,5,428,4965,2725,81771963,81772,78219,392,1580,9840,3751,177,-32,-146,28.0625,-0.16724535822868347,0.00487508624792099,0.943357527256012,6.106226921081543,-3.263920545578003,-5.358515739440918,0.3238094449043274,-1.209402322769165,-7.553403377532959,1583,1500,1231,1500,2000,1503,1000,1000,1294,1540,1491,1807,1823,1531,1490,22,35,3060,3067,3,92.78999999999999,2.79,89.1,-0.8999999999999999,1,1,1,1,1,1,1,0,1,1,0,0,stabilized_mix,1.1902729272842407,0.5515171885490417,0.14794957637786865,0.019848251715302467,0.014115681871771812,0.004523495677858591,0.0,0.13279999792575836,-0.019848251715302467,0.1186843141913414,0.0,0.0,0.0,0.0,0.0,0.0,0.0,0.0,0.0,0.0,0.0,0.0,0.0,0.0,0.0,0.0,0.0,0.0,0.28304368257522583,-0.07577141374349594,13.407069206237793,0.021108390763401985,0.005650282371789217,-0.006276133470237255,-0.024547267705202103,0.02063561975955963,-0.03774189203977585,0.014816084876656532,-0.062079429626464844,0.007485628128051758,0.04676187038421631,1.8986640498042107e-05,13.410270690917969,6.610202312469482,6.8000688552856445,1807.0,1823.0,0.0,0.0,0.04052888602018356,-0.009611831046640873,-0.12847869098186493,-0.04621380940079689,-0.011549565941095352,-0.0031507937237620354,0.10657376050949097,-0.056966159492731094,-0.09352374076843262,0.07008794695138931,-0.01636156253516674,1.8986624127137475e-05,1.0,0.20076115429401398,0.857162356376648,0,0.0,0,0,0,0,0,0.0,0.0,0,440067483,1358,339
827477062,5,428,4966,2725,81775997,81776,78223,392,-2279,8012,-509,143,-226,-165,28.0625,-0.07027287036180496,-0.0044159069657325745,0.9684052467346191,5.658383846282959,-3.4527151584625244,-5.781996726989746,0.29901325702667236,-1.357945442199707,-7.571905612945557,1584,1500,1239,1500,2000,1503,1000,1000,1301,1537,1491,1806,1823,1531,1490,26,39,3060,3067,3,92.78999999999999,2.79,89.1,-0.8999999999999999,1,1,1,1,1,1,1,0,1,1,0,0,stabilized_mix,0.9715170860290527,0.6456699371337891,-0.00868670828640461,0.018886679783463478,0.013487034477293491,0.004678111523389816,0.0,0.13439999520778656,-0.018886679783463478,0.12091296166181564,0.0,0.0,0.0,0.0,0.0,0.0,0.0,0.0,0.0,0.0,0.0,0.0,0.0,0.0,0.0,0.0,0.0,0.0,0.31780198216438293,-0.06996508687734604,13.406322479248047,0.02370094321668148,0.005217299796640873,-0.007798127830028534,-0.022713683545589447,0.02182445488870144,-0.03497353196144104,0.014480525627732277,-0.05743914097547531,0.00813150405883789,0.050457440316677094,2.050609327852726e-05,13.410270690917969,6.60260534286499,6.807666301727295,1806.0,1823.0,0.0,0.0,0.037501461803913116,-0.00939740240573883,-0.12844151258468628,-0.04276629537343979,-0.01435745321214199,-0.0034804202150553465,0.09875743091106415,-0.06026124581694603,-0.10091488063335419,0.06485474109649658,-0.015994809567928314,2.050612965831533e-05,1.0,0.18577106297016144,0.857162356376648,0,0.0,0,0,0,0,0,0.0,0.0,0,513195078,1359,340
827477062,5,428,4967,2725,81780030,81780,78227,394,359,7471,543,130,-317,-3,28.078125,0.12287181615829468,-0.013573940843343735,0.9690397381782532,2.175086736679077,-2.602816343307495,-9.670650482177734,0.3377068042755127,-1.2895570993423462,-7.606268405914307,1584,1500,1239,1500,2000,1503,1000,1000,1301,1516,1496,1802,1828,1531,1490,30,43,3060,3067,3,92.78999999999999,2.79,89.1,-0.8999999999999999,1,1,1,1,1,1,1,0,1,1,0,0,stabilized_mix,1.2735646963119507,0.5993562936782837,-0.051910292357206345,0.02326318435370922,0.01570112630724907,0.004521280527114868,0.0,0.13439999520778656,-0.02326318435370922,0.11869886517524719,0.0,0.0,0.0,0.0,0.0,0.0,0.0,0.0,0.0,0.0,0.0,0.0,0.0,0.0,0.0,0.0,0.0,0.0,0.3017997145652771,-0.07902093976736069,13.406641960144043,0.022507406771183014,0.005892602726817131,-0.009768334217369556,-0.01179606281220913,0.01642915979027748,-0.013440296985208988,0.006954439915716648,-0.02489481121301651,0.009330987930297852,0.08439234644174576,3.280316013842821e-05,13.410270690917969,6.5411200523376465,6.869151592254639,1802.0,1828.0,0.0,0.0,0.016256753355264664,-0.004521047230809927,-0.1281624436378479,-0.02220916375517845,-0.018007341772317886,-0.00449784891679883,0.037962425500154495,-0.04542771354317665,-0.16878469288349152,0.028122110292315483,-0.007691218517720699,3.2803167414385825e-05,1.0,0.08055346459150314,0.857162356376648,0,0.0,0,0,0,0,0,0.0,0.0,0,1673484329,1359,340
827477062,5,428,4968,2725,81783052,81784,78230,394,6785,8971,-1253,19,-9,-56,28.078125,0.037454597651958466,-0.13817591965198517,0.9830215573310852,2.1799347400665283,-2.366624355316162,-3.2996058464050293,0.3106556236743927,-1.2714259624481201,-7.622160911560059,1584,1500,1239,1500,2000,1503,1000,1000,1301,1516,1497,1809,1820,1531,1490,34,47,3060,3067,3,92.78999999999999,2.79,89.1,-0.8999999999999999,1,1,1,1,1,1,1,0,1,1,0,0,stabilized_mix,1.3685147762298584,0.7095670700073242,-0.08778931200504303,0.027174852788448334,0.017533276230096817,0.004300572443753481,0.0,0.13439999520778656,-0.027174852788448334,0.11686672270298004,0.0,0.0,0.0,0.0,0.0,0.0,0.0,0.0,0.0,0.0,0.0,0.0,0.0,0.0,0.0,0.0,0.0,0.0,0.29755711555480957,-0.07269173860549927,13.406771659851074,0.022190894931554794,0.005420628469437361,-0.010417877696454525,-0.011553983204066753,0.014938323758542538,-0.013471455313265324,0.004619915038347244,-0.024918779730796814,0.009885728359222412,0.02879449352622032,1.3538054190576077e-05,13.410270690917969,6.637445449829102,6.772825717926025,1809.0,1820.0,0.0,0.0,0.016273435205221176,-0.0030088378116488457,-0.12813790142536163,-0.021753214299678802,-0.019205570220947266,-0.004788849502801895,0.03804703801870346,-0.041305385529994965,-0.05758898705244064,0.02815026044845581,-0.005109790246933699,1.353807692794362e-05,1.0,0.08063410222530365,0.857162356376648,0,0.0,0,0,0,0,0,0.0,0.0,0,3763969665,1359,340
827477062,5,428,4969,2725,81787124,81788,78234,390,-1896,6719,-1596,-118,-306,-66,28.046875,-0.05725209787487984,0.09769603610038757,0.9799407124519348,2.336209535598755,1.0841745138168335,-4.49318790435791,0.28611600399017334,-1.3115663528442383,-7.6320672035217285,1584,1500,1239,1500,2000,1503,1000,1000,1301,1517,1519,1808,1822,1531,1490,38,51,3060,3067,3,92.78999999999999,2.79,89.1,-0.8999999999999999,1,1,1,1,1,1,1,0,1,1,0,0,stabilized_mix,1.2885022163391113,0.7286204695701599,-0.2341637909412384,0.026996469125151634,0.01746218092739582,0.0036286464892327785,0.0,0.13439999520778656,-0.026996469125151634,0.11693781614303589,0.0,0.0,0.0,0.0,0.0,0.0,0.0,0.0,0.0,0.0,0.0,0.0,0.0,0.0,0.0,0.0,0.0,0.0,0.3069497346878052,-0.06694859266281128,13.406590461730957,0.022891437634825706,0.004992357920855284,-0.02279038354754448,-0.011781682260334492,-0.006844185292720795,-0.01443738304078579,-0.029489558190107346,-0.026287373155355453,0.01023152470588684,0.03921046108007431,1.7304671928286552e-05,13.410270690917969,6.618612289428711,6.791658878326416,1808.0,1822.0,0.0,0.0,0.017189698293805122,0.01910121738910675,-0.12776058912277222,-0.0221819169819355,-0.042009539902210236,-0.005186466500163078,0.040774546563625336,0.018922414630651474,-0.07842092216014862,0.029694128781557083,0.03261273354291916,1.7304693756159395e-05,1.0,0.09541957825422287,0.857162356376648,0,0.0,0,0,0,0,0,0.0,0.0,0,2709591911,1359,340
827477062,5,428,4970,2725,81791155,81792,78238,392,-1461,7671,-1479,-54,-374,5,28.0625,-0.07591849565505981,0.10120423883199692,0.9945406317710876,0.19513817131519318,1.3196138143539429,-10.815580368041992,0.3791585862636566,-1.3660404682159424,-7.669321537017822,1584,1500,1239,1500,2000,1503,1000,1000,1301,1505,1521,1800,1830,1531,1490,42,55,3060,3067,3,92.78999999999999,2.79,89.1,-0.8999999999999999,1,1,1,1,1,1,1,0,1,1,0,0,stabilized_mix,1.1777517795562744,0.5486329793930054,-0.3633044362068176,0.031755995005369186,0.019812697544693947,0.0024193739518523216,0.0,0.13439999520778656,-0.031755995005369186,0.11458729952573776,0.0,0.0,0.0,0.0,0.0,0.0,0.0,0.0,0.0,0.0,0.0,0.0,0.0,0.0,0.0,0.0,0.0,0.0,0.3196960985660553,-0.08871747553348541,13.406166076660156,0.023842426016926765,0.0066156848333776,-0.024425029754638672,-0.006144307553768158,-0.008327830582857132,-0.001206810586154461,-0.0327276885509491,-0.007546460255980492,0.011531949043273926,0.09438374638557434,3.7070480175316334e-05,13.410270690917969,6.519783020019531,6.890488147735596,1800.0,1830.0,0.0,0.0,0.004951793700456619,0.021215394139289856,-0.12798389792442322,-0.01157083734869957,-0.04503600671887398,-0.005906909238547087,0.003405803581699729,0.023031605407595634,-0.18876749277114868,0.008525030687451363,0.036201685667037964,3.7070491089252755e-05,1.0,0.10588669776916504,0.857162356376648,0,0.0,0,0,0,0,0,0.0,0.0,0,3024967776,1359,340
827477062,5,428,4971,2725,81795188,81796,78242,408,-3312,8742,-3591,26,-246,53,28.1875,0.040347713977098465,0.1593906432390213,1.0129863023757935,-0.19097870588302612,-2.2168335914611816,-8.063688278198242,0.49207326769828796,-1.3906757831573486,-7.707340240478516,1584,1500,1239,1500,2000,1503,1000,1000,1301,1503,1499,1803,1827,1531,1490,46,59,3060,3067,3,92.78999999999999,2.79,89.1,-0.8999999999999999,1,1,1,1,1,1,1,0,1,1,0,0,stabilized_mix,1.2179306745529175,0.3543015718460083,-0.4625762403011322,0.02914946898818016,0.018345408141613007,0.0007463322253897786,0.0,0.13439999520778656,-0.02914946898818016,0.11605458706617355,0.0,0.0,0.0,0.0,0.0,0.0,0.0,0.0,0.0,0.0,0.0,0.0,0.0,0.0,0.0,0.0,0.0,0.0,0.32546043395996094,-0.11513607203960419,13.4058256149292,0.024272769689559937,0.00858576875180006,-0.012706863693892956,-0.006290514953434467,0.01398917380720377,0.001180445309728384,0.001259540906175971,-0.004866790026426315,0.012859046459197998,0.07036895304918289,2.912979107350111e-05,13.410270690917969,6.5594868659973145,6.850784778594971,1803.0,1827.0,0.0,0.0,0.0031770167406648397,-0.0008209145744331181,-0.12809155881404877,-0.011843925341963768,-0.023430682718753815,-0.006489221937954426,-0.003333207219839096,-0.038691043853759766,-0.14073790609836578,0.00549726840108633,-0.0013942471705377102,2.9129798349458724e-05,1.0,0.015746472403407097,0.857162356376648,0,0.0,0,0,0,0,0,0.0,0.0,0,2807986143,1359,340
827477062,5,428,4972,2725,81799210,81800,78246,380,3525,9324,1064,-19,-263,139,27.96875,0.08939190208911896,0.012748681008815765,1.0107052326202393,-2.658179521560669,-1.4167289733886719,-9.110508918762207,0.6209205389022827,-1.2710888385772705,-7.7444047927856445,1584,1500,1239,1500,2000,1503,1000,1000,1301,1489,1503,1802,1828,1531,1490,50,63,3060,3067,3,92.78999999999999,2.79,89.1,-0.8999999999999999,1,1,1,1,1,1,1,0,1,1,0,0,stabilized_mix,1.5629301071166992,0.22310152649879456,-0.4880240559577942,0.03462313488125801,0.01909172348678112,-0.001173163065686822,0.0,0.13439999520778656,-0.03462313488125801,0.11530826985836029,0.0,0.0,0.0,0.0,0.0,0.0,0.0,0.0,0.0,0.0,0.0,0.0,0.0,0.0,0.0,0.0,0.0,0.0,0.29747822880744934,-0.14528994262218475,13.406184196472168,0.02218598499894142,0.010834439657628536,-0.013835777528584003,-5.153212259756401e-05,0.008941423147916794,0.01642676070332527,-0.0052335066720843315,0.016551397740840912,0.014152854681015015,0.07950418442487717,3.277999348938465e-05,13.410270690917969,6.541235446929932,6.869035720825195,1802.0,1828.0,0.0,0.0,-0.010806228965520859,0.0034069132525473833,-0.12812575697898865,-9.695906192064285e-05,-0.025510821491479874,-0.007315155118703842,-0.046393983066082,-0.024726584553718567,-0.15900836884975433,-0.01869856007397175,0.005789506249129772,3.277996074757539e-05,1.0,0.05356048420071602,0.857162356376648,0,0.0,0,0,0,0,0,0.0,0.0,0,4031214688,1359,340
827477062,5,428,4973,2725,81803210,81804,78250,412,317,8239,-672,4,-17,146,28.21875,0.05814347788691521,-0.0557103231549263,0.9897064566612244,-3.8409247398376465,-0.6377861499786377,-2.707089900970459,0.5908269882202148,-1.2056578397750854,-7.765647888183594,1584,1500,1239,1500,2000,1503,1000,1000,1301,1482,1507,1809,1820,1531,1490,54,67,3060,3067,3,92.78999999999999,2.79,89.1,-0.8999999999999999,1,1,1,1,1,1,1,0,1,1,0,0,stabilized_mix,1.6782137155532837,0.4781588017940521,-0.5079326629638672,0.04085272178053856,0.02037901058793068,-0.0031991805881261826,0.0,0.13439999520778656,-0.04085272178053856,0.11402098834514618,0.0,0.0,0.0,0.0,0.0,0.0,0.0,0.0,0.0,0.0,0.0,0.0,0.0,0.0,0.0,0.0,0.0,0.0,0.2821674644947052,-0.13825199007987976,13.40658950805664,0.021043816581368446,0.010309593752026558,-0.015429675579071045,0.004183689132332802,0.0040254974737763405,0.02373713254928589,-0.011549188755452633,0.02794599160552025,0.014894366264343262,0.023623816668987274,1.348135992884636e-05,13.410270690917969,6.637728691101074,6.772542476654053,1809.0,1820.0,0.0,0.0,-0.01824169047176838,0.007509258110076189,-0.1282259225845337,0.007878548465669155,-0.028440218418836594,-0.007715964689850807,-0.06703678518533707,-0.0111314682289958,-0.04724763333797455,-0.031568482518196106,0.012771968729794025,1.3481363566825166e-05,1.0,0.09042531251907349,0.857162356376648,0,0.0,0,0,0,0,0,0.0,0.0,0,3797561217,1359,340
827477062,5,428,4974,2725,81807245,81808,78254,394,-1605,8240,2407,-59,-23,205,28.078125,0.05188971757888794,-0.05982430651783943,0.9931721091270447,-6.407541751861572,1.0445587635040283,-1.3514490127563477,0.5379628539085388,-1.1050221920013428,-7.772838592529297,1584,1500,1239,1500,2000,1503,1000,1000,1301,1466,1517,1811,1818,1531,1490,58,71,3060,3067,3,92.78999999999999,2.79,89.1,-0.8999999999999999,1,1,1,1,1,1,1,0,1,1,0,0,stabilized_mix,1.8292242288589478,0.7367320656776428,-0.5042322874069214,0.04189620167016983,0.019924353808164597,-0.005238430108875036,0.0,0.13439999520778656,-0.04189620167016983,0.11447563767433167,0.0,0.0,0.0,0.0,0.0,0.0,0.0,0.0,0.0,0.0,0.0,0.0,0.0,0.0,0.0,0.0,0.0,0.0,0.2586181163787842,-0.12588675320148468,13.407185554504395,0.019287124276161194,0.009387477301061153,-0.019693661481142044,0.013361201621592045,-0.006599706597626209,0.03960663080215454,-0.026416804641485214,0.052961841225624084,0.01514539122581482,0.011793617159128189,9.428709745407104e-06,13.410270690917969,6.657991886138916,6.752279281616211,1811.0,1818.0,0.0,0.0,-0.03456396237015724,0.017149947583675385,-0.12868191301822662,0.025155970826745033,-0.03626269847154617,-0.0077766901813447475,-0.11183270066976547,0.018230989575386047,-0.023587234318256378,-0.05980488285422325,0.02918362058699131,9.428652447240893e-06,1.0,0.17130616307258606,0.857162356376648,0,0.0,0,0,0,0,0,0.0,0.0,0,4059651067,1360,341
827477062,5,428,4975,2725,81811289,81812,78258,400,-4543,7875,2364,-28,-63,219,28.125,-0.09265607595443726,0.1329675167798996,0.9976304173469543,-5.967693328857422,0.6380155682563782,0.3414483070373535,0.6038306355476379,-1.1328001022338867,-7.7697601318359375,1584,1500,1239,1500,2000,1503,1000,1000,1301,1470,1514,1813,1816,1531,1490,62,75,3060,3067,3,92.78999999999999,2.79,89.1,-0.8999999999999999,1,1,1,1,1,1,1,0,1,1,0,0,stabilized_mix,1.6338011026382446,0.6336714029312134,-0.5979354977607727,0.048501789569854736,0.022576188668608665,-0.007483240682631731,0.0,0.13439999520778656,-0.048501789569854736,0.11182380467653275,0.0,0.0,0.0,0.0,0.0,0.0,0.0,0.0,0.0,0.0,0.0,0.0,0.0,0.0,0.0,0.0,0.0,0.0,0.26511842012405396,-0.1412983536720276,13.406905174255371,0.019772188737988472,0.010536772198975086,-0.018624668940901756,0.0109883276745677,-0.004030290991067886,0.03688621520996094,-0.022627398371696472,0.04788532853126526,0.01503792405128479,-0.0029796985909342766,4.220404662191868e-06,13.410270690917969,6.684033393859863,6.726237773895264,1813.0,1816.0,0.0,0.0,-0.031252212822437286,0.014696253463625908,-0.12854836881160736,0.020687583833932877,-0.03430325165390968,-0.007776456419378519,-0.10415589809417725,0.011135471984744072,0.005959397181868553,-0.054078273475170135,0.02500470168888569,4.220378741592867e-06,1.0,0.15490275621414185,0.857162356376648,0,0.0,0,0,0,0,0,0.0,0.0,0,1955163730,1360,341
827477062,5,428,4976,2725,81815310,81816,78262,402,-647,7682,1353,-71,-84,254,28.140625,-0.13202345371246338,0.18421192467212677,1.0027881860733032,-6.590686798095703,2.12691593170166,-1.9966607093811035,0.8140913844108582,-1.2317548990249634,-7.775029182434082,1584,1500,1239,1500,2000,1503,1000,1000,1301,1468,1525,1810,1819,1531,1490,66,2,3060,3068,3,92.78999999999999,2.79,89.1,-0.8999999999999999,1,1,1,1,1,1,1,0,1,1,0,0,stabilized_mix,1.312041997909546,0.23240888118743896,-0.7389759421348572,0.047812946140766144,0.02181589975953102,-0.010228944011032581,0.0,0.13439999520778656,-0.047812946140766144,0.11258409917354584,0.0,0.0,0.0,0.0,0.0,0.0,0.0,0.0,0.0,0.0,0.0,0.0,0.0,0.0,0.0,0.0,0.0,0.0,0.28827419877052307,-0.19049039483070374,13.405818939208984,0.021500349044799805,0.01420529093593359,-0.025273513048887253,0.010031985118985176,-0.013437900692224503,0.04073794186115265,-0.03890196233987808,0.05072319507598877,0.015221834182739258,0.017424151301383972,1.1426047421991825e-05,13.410270690917969,6.648005485534668,6.762265682220459,1810.0,1819.0,0.0,0.0,-0.0330977588891983,0.025233326479792595,-0.12892432510852814,0.01889018341898918,-0.046538613736629486,-0.007876208052039146,-0.11502918601036072,0.03712168708443642,-0.034848302602767944,-0.05728026479482651,0.04297487810254097,1.1426094715716317e-05,1.0,0.1640745997428894,0.857162356376648,0,0.0,0,0,0,0,0,0.0,0.0,0,129142223,1360,341
827477062,5,428,4977,2725,81819344,81820,78266,370,4487,7362,-3910,-18,-148,322,27.890625,0.023343011736869812,0.037741489708423615,0.978312075138092,-8.360515594482422,1.5907974243164062,-2.7432196140289307,0.9766317009925842,-1.3034518957138062,-7.7828521728515625,1584,1500,1239,1500,2000,1503,1000,1000,1301,1459,1522,1809,1820,1531,1490,70,6,3060,3068,3,92.78999999999999,2.79,89.1,-0.8999999999999999,1,1,1,1,1,1,1,0,1,1,0,0,stabilized_mix,1.148263931274414,0.06872165948152542,-0.7841015458106995,0.052018821239471436,0.02197285182774067,-0.01337598729878664,0.0,0.13439999520778656,-0.052018821239471436,0.11242714524269104,0.0,0.0,0.0,0.0,0.0,0.0,0.0,0.0,0.0,0.0,0.0,0.0,0.0,0.0,0.0,0.0,0.0,0.0,0.3050509989261627,-0.22851373255252838,13.404853820800781,0.022752830758690834,0.017041025683283806,-0.024547267705202103,0.013526584021747112,-0.010058351792395115,0.05168671905994415,-0.03493039309978485,0.06517615169286728,0.01549491286277771,0.0239391066133976,1.380185130983591e-05,13.410270690917969,6.636126518249512,6.774144649505615,1809.0,1820.0,0.0,0.0,-0.042529717087745667,0.022657230496406555,-0.1290530413389206,0.025467779487371445,-0.04516485333442688,-0.008129764348268509,-0.14591851830482483,0.02776465192437172,-0.0478782132267952,-0.07358074933290482,0.038558632135391235,1.3801905879518017e-05,1.0,0.2107659876346588,0.857162356376648,0,0.0,0,0,0,0,0,0.0,0.0,0,2108966882,1360,341
827477062,5,428,4978,2725,81823376,81824,78270,392,2295,8387,-5475,-56,193,321,28.0625,0.2354450225830078,-0.16424497961997986,0.9897829294204712,-10.024080276489258,1.691288948059082,1.5714380741119385,0.8990470767021179,-1.1744906902313232,-7.788026809692383,1584,1500,1239,1500,2000,1503,1000,1000,1301,1448,1521,1814,1815,1531,1490,74,10,3060,3068,3,92.78999999999999,2.79,89.1,-0.8999999999999999,1,1,1,1,1,1,1,0,1,1,0,0,stabilized_mix,1.4742097854614258,0.5147688388824463,-0.6699439287185669,0.05672406405210495,0.022993233054876328,-0.016262490302324295,0.0,0.13439999520778656,-0.05672406405210495,0.11140675842761993,0.0,0.0,0.0,0.0,0.0,0.0,0.0,0.0,0.0,0.0,0.0,0.0,0.0,0.0,0.0,0.0,0.0,0.0,0.2748742699623108,-0.21037213504314423,13.405802726745605,0.020501254126429558,0.015688031911849976,-0.022723272442817688,0.0201442651450634,-0.010707895271480083,0.06198355555534363,-0.03321424871683121,0.08221770077943802,0.01567554473876953,-0.013713384047150612,6.867339834570885e-07,13.410270690917969,6.701702117919922,6.708569526672363,1814.0,1815.0,0.0,0.0,-0.053643010556697845,0.02153458632528782,-0.12924513220787048,0.03792884945869446,-0.04175616800785065,-0.008130999282002449,-0.17495320737361908,0.02951856143772602,0.027426768094301224,-0.09277960658073425,0.03661809116601944,6.86756209233863e-07,1.0,0.26575952768325806,0.857162356376648,0,0.0,0,0,0,0,0,0.0,0.0,0,2046829272,1360,341
827477062,5,428,4979,2725,81827411,81828,78274,410,-1634,8207,1721,-280,259,314,28.203125,0.051511071622371674,-0.15668079257011414,0.9420493245124817,-9.822028160095215,5.16004753112793,6.220714569091797,0.7382702827453613,-1.0224523544311523,-7.769038200378418,1584,1500,1239,1500,2000,1503,1000,1000,1301,1447,1541,1820,1809,1531,1490,78,14,3060,3068,3,92.78999999999999,2.79,89.1,-0.8999999999999999,1,1,1,1,1,1,1,0,1,1,0,0,stabilized_mix,1.6898846626281738,1.0076713562011719,-0.5039248466491699,0.0579165555536747,0.024824295192956924,-0.018551653251051903,0.0,0.13439999520778656,-0.0579165555536747,0.10957570374011993,0.0,0.0,0.0,0.0,0.0,0.0,0.0,0.0,0.0,0.0,0.0,0.0,0.0,0.0,0.0,0.0,0.0,0.0,0.23929573595523834,-0.17276236414909363,13.407022476196289,0.017846642062067986,0.012883196584880352,-0.03208772838115692,0.02201859839260578,-0.032677359879016876,0.0607324093580246,-0.06394417583942413,0.08324834704399109,0.0150127112865448,-0.05428597331047058,-1.3745622709393501e-05,13.410270690917969,6.773863792419434,6.636407375335693,1820.0,1809.0,0.0,0.0,-0.054329030215740204,0.041369568556547165,-0.13033807277679443,0.041457079350948334,-0.0589570552110672,-0.007238489575684071,-0.17142672836780548,0.09005981683731079,0.10857194662094116,-0.09394019842147827,0.07045545428991318,-1.3745640899287537e-05,1.0,0.2690839469432831,0.857162356376648,0,0.0,0,0,0,0,0,0.0,0.0,0,1938386701,1360,341
827477062,5,428,4980,2725,81831444,81832,78278,400,-7615,7800,2700,-271,103,249,28.125,-0.17443950474262238,0.2756732702255249,1.000227451324463,-7.799755096435547,6.549141883850098,5.694401264190674,0.8456250429153442,-1.0719369649887085,-7.741408348083496,1584,1500,1239,1500,2000,1503,1000,1000,1301,1460,1550,1820,1810,1531,1490,82,18,3060,3068,3,92.78999999999999,2.79,89.1,-0.8999999999999999,1,1,1,1,1,1,1,0,1,1,0,0,stabilized_mix,1.383974552154541,0.7183513641357422,-0.6015402674674988,0.06352899223566055,0.028235148638486862,-0.020724790170788765,0.0,0.13439999520778656,-0.06352899223566055,0.1061648428440094,0.0,0.0,0.0,0.0,0.0,0.0,0.0,0.0,0.0,0.0,0.0,0.0,0.0,0.0,0.0,0.0,0.0,0.0,0.2508758306503296,-0.1978795826435089,13.406463623046875,0.018710866570472717,0.014756358228623867,-0.03767717629671097,0.01390768215060234,-0.04141625016927719,0.048218488693237305,-0.07853376120328903,0.06265706568956375,0.014048248529434204,-0.0496930256485939,-1.247564796358347e-05,13.410270690917969,6.767513751983643,6.642757415771484,1820.0,1810.0,0.0,0.0,-0.04090107977390289,0.05084369331598282,-0.13016876578330994,0.026186766102910042,-0.06932567805051804,-0.006871982477605343,-0.1361314058303833,0.1143040880560875,0.0993860512971878,-0.07074001431465149,0.08663176745176315,-1.2475671610445715e-05,1.0,0.25388115644454956,0.857162356376648,0,0.0,0,0,0,0,0,0.0,0.0,0,4126980923,1360,341
827477062,5,428,4981,2725,81835477,81836,78282,396,2574,6899,-2686,101,-29,350,28.09375,0.04951208457350731,0.14035621285438538,0.9714080691337585,-9.6820068359375,0.5699543952941895,0.9548549056053162,1.1023623943328857,-1.0856918096542358,-7.730286598205566,1584,1500,1239,1500,2000,1503,1000,1000,1301,1452,1513,1814,1815,1531,1490,86,22,3060,3068,3,92.78999999999999,2.79,89.1,-0.8999999999999999,1,1,1,1,1,1,1,0,1,1,0,0,stabilized_mix,1.304053544998169,0.21108245849609375,-0.6860854625701904,0.06221449375152588,0.02764894813299179,-0.02341366745531559,0.0,0.13439999520778656,-0.06221449375152588,0.10675104707479477,0.0,0.0,0.0,0.0,0.0,0.0,0.0,0.0,0.0,0.0,0.0,0.0,0.0,0.0,0.0,0.0,0.0,0.0,0.25409460067749023,-0.25794944167137146,13.40538215637207,0.018952401354908943,0.019236402586102486,-0.01762997731566429,0.01611517369747162,-0.003606050042435527,0.05986715108156204,-0.02110779657959938,0.07602427154779434,0.013660043478012085,-0.00833268091082573,1.864624209702015e-06,13.410270690917969,6.695812702178955,6.71445894241333,1814.0,1815.0,0.0,0.0,-0.0496109239757061,0.013706243596971035,-0.12876944243907928,0.03034190833568573,-0.03241432085633278,-0.0072678760625422,-0.16898289322853088,0.00994758028537035,0.01666536182165146,-0.0858066976070404,0.02328498847782612,1.864576802290685e-06,1.0,0.24578621983528137,0.857162356376648,0,0.0,0,0,0,0,0,0.0,0.0,0,1412639663,1360,341
827477062,5,428,4982,2725,81839511,81840,78286,398,4940,9079,-250,-70,78,317,28.109375,0.18127091228961945,-0.21621814370155334,1.0119167566299438,-9.68159008026123,-0.2647436857223511,3.2341742515563965,1.0654716491699219,-0.9439634084701538,-7.719898223876953,1584,1500,1239,1500,2000,1503,1000,1000,1301,1451,1507,1817,1812,1531,1490,90,26,3060,3068,3,92.78999999999999,2.79,89.1,-0.8999999999999999,1,1,1,1,1,1,1,0,1,1,0,0,stabilized_mix,1.6222583055496216,0.5384542942047119,-0.5972999334335327,0.06742815673351288,0.028721541166305542,-0.025903772562742233,0.0,0.13439999520778656,-0.06742815673351288,0.10567845404148102,0.0,0.0,0.0,0.0,0.0,0.0,0.0,0.0,0.0,0.0,0.0,0.0,0.0,0.0,0.0,0.0,0.0,0.0,0.22092783451080322,-0.24932903051376343,13.406131744384766,0.016478119418025017,0.01859346404671669,-0.01252710074186325,0.016623303294181824,0.0016765915788710117,0.05986235290765762,-0.010413084179162979,0.07651322335004807,0.013297408819198608,-0.028223494067788124,-5.2241375669837e-06,13.410270690917969,6.731256484985352,6.679015159606934,1817.0,1812.0,0.0,0.0,-0.04993338882923126,0.0067925648763775826,-0.1284283846616745,0.03129718452692032,-0.02303290367126465,-0.007101160474121571,-0.1689756214618683,-0.004620648920536041,0.05644698813557625,-0.08635535091161728,0.011488375253975391,-5.224129836278735e-06,1.0,0.2473577857017517,0.857162356376648,0,0.0,0,0,0,0,0,0.0,0.0,0,3675451639,1361,342
827477062,5,428,4983,2725,81843549,81844,78290,410,-1752,9555,5071,-407,500,136,28.203125,-0.10262657701969147,-0.08057527244091034,1.047041654586792,-6.024864673614502,7.523079872131348,9.748924255371094,0.9317436814308167,-0.9015473127365112,-7.697089195251465,1584,1500,1239,1500,2000,1503,1000,1000,1301,1471,1554,1825,1805,1531,1490,94,30,3060,3068,3,92.78999999999999,2.79,89.1,-0.8999999999999999,1,1,1,1,1,1,1,0,1,1,0,0,stabilized_mix,1.5540757179260254,0.9403461813926697,-0.6335166096687317,0.07324635982513428,0.03174358606338501,-0.028279311954975128,0.0,0.13439999520778656,-0.07324635982513428,0.10265640914440155,0.0,0.0,0.0,0.0,0.0,0.0,0.0,0.0,0.0,0.0,0.0,0.0,0.0,0.0,0.0,0.0,0.0,0.0,0.2110014706850052,-0.21804113686084747,13.406837463378906,0.015737047418951988,0.01625998318195343,-0.03840582072734833,0.007134202867746353,-0.04753538966178894,0.037238553166389465,-0.08519937843084335,0.0453830286860466,0.01250120997428894,-0.08507541567087173,-2.5401008315384388e-05,13.410270690917969,6.8321404457092285,6.578130722045898,1825.0,1805.0,0.0,0.0,-0.0296209454536438,0.05518351495265961,-0.12972316145896912,0.013432678766548634,-0.07073262333869934,-0.00623666774481535,-0.10515372455120087,0.13130250573158264,0.17015083134174347,-0.05125268176198006,0.09405434876680374,-2.5400971935596317e-05,1.0,0.27537626028060913,0.857162356376648,0,0.0,0,0,0,0,0,0.0,0.0,0,2367838267,1361,342
827477062,5,428,4984,2725,81847581,81848,78294,394,-1452,8842,-2382,73,487,224,28.078125,-0.11856361478567123,0.1803874671459198,1.0276004076004028,-5.7891340255737305,3.5895071029663086,13.744518280029297,1.0323435068130493,-1.023056983947754,-7.647174835205078,1584,1500,1239,1500,2000,1503,1000,1000,1301,1474,1531,1831,1800,1531,1490,98,34,3060,3068,3,92.78999999999999,2.79,89.1,-0.8999999999999999,1,1,1,1,1,1,1,0,1,1,0,0,stabilized_mix,1.1057567596435547,0.6630828380584717,-0.7645396590232849,0.07168622314929962,0.03226255625486374,-0.031115124002099037,0.0,0.13439999520778656,-0.07168622314929962,0.10213743895292282,0.0,0.0,0.0,0.0,0.0,0.0,0.0,0.0,0.0,0.0,0.0,0.0,0.0,0.0,0.0,0.0,0.0,0.0,0.23943723738193512,-0.24157190322875977,13.405957221984863,0.017858611419796944,0.018014920875430107,-0.026555821299552917,0.00471578910946846,-0.02267054095864296,0.03578127175569534,-0.04812740534543991,0.04117416590452194,0.01075887680053711,-0.11994355171918869,-3.821460995823145e-05,13.410270690917969,6.896208763122559,6.514062404632568,1831.0,1800.0,0.0,0.0,-0.026870904490351677,0.031199228018522263,-0.1289273500442505,0.008877909742295742,-0.04892030730843544,-0.005638815462589264,-0.10103944689035416,0.0626487135887146,0.23988710343837738,-0.04650372639298439,0.053184013813734055,-3.82146354240831e-05,1.0,0.15568600594997406,0.857162356376648,0,0.0,0,0,0,0,0,0.0,0.0,0,492722520,1361,342
827477062,5,428,4985,2725,81851614,81852,78298,376,2375,8503,-3939,85,424,256,27.9375,0.20038577914237976,-0.08995209634304047,1.0036635398864746,-7.438817977905273,-1.3034563064575195,11.287529945373535,1.0376828908920288,-0.940678060054779,-7.601020336151123,1584,1500,1239,1500,2000,1503,1000,1000,1301,1465,1499,1828,1802,1531,1490,102,38,3060,3068,3,92.78999999999999,2.79,89.1,-0.8999999999999999,1,1,1,1,1,1,1,0,1,1,0,0,stabilized_mix,1.3265844583511353,0.7373477816581726,-0.7569787502288818,0.0756009966135025,0.03459171950817108,-0.03420357406139374,0.0,0.13439999520778656,-0.0756009966135025,0.09980827569961548,0.0,0.0,0.0,0.0,0.0,0.0,0.0,0.0,0.0,0.0,0.0,0.0,0.0,0.0,0.0,0.0,0.0,0.0,0.22015899419784546,-0.2428271770477295,13.406264305114746,0.016420623287558556,0.018108541145920753,-0.008565117605030537,0.009552618488669395,0.008236750029027462,0.04598464071750641,0.000844887166749686,0.05534910410642624,0.009147793054580688,-0.0985022783279419,-3.127404488623142e-05,13.410270690917969,6.86150598526001,6.548765182495117,1828.0,1802.0,0.0,0.0,-0.03613840788602829,-0.0005161823355592787,-0.12807027995586395,0.01798633486032486,-0.0157699603587389,-0.005021595861762762,-0.12983186542987823,-0.022749604657292366,0.1970045566558838,-0.062497545033693314,-0.0009333643829450011,-3.127407035208307e-05,1.0,0.17901906371116638,0.857162356376648,0,0.0,0,0,0,0,0,0.0,0.0,0,2212758223,1361,342
827477062,5,428,4986,2725,81855643,81856,78302,394,-5979,9050,9224,-450,544,96,28.078125,-0.26540765166282654,-0.016918227076530457,1.0928303003311157,-4.496443748474121,7.201389312744141,13.291430473327637,0.9353180527687073,-0.9538037180900574,-7.553515911102295,1584,1500,1239,1500,2000,1503,1000,1000,1301,1480,1553,1831,1800,1531,1490,106,42,3060,3068,3,92.78999999999999,2.79,89.1,-0.8999999999999999,1,1,1,1,1,1,1,0,1,1,0,0,stabilized_mix,1.200048565864563,1.0296472311019897,-0.9200143218040466,0.07202018052339554,0.033924274146556854,-0.037532977759838104,0.0,0.13439999520778656,-0.07202018052339554,0.1004757210612297,0.0,0.0,0.0,0.0,0.0,0.0,0.0,0.0,0.0,0.0,0.0,0.0,0.0,0.0,0.0,0.0,0.0,0.0,0.22323065996170044,-0.21887429058551788,13.406625747680664,0.016649233177304268,0.016322117298841476,-0.038079842925071716,0.002208690857514739,-0.04547650367021561,0.027790198102593422,-0.08279294520616531,0.03130636364221573,0.007489562034606934,-0.11598961055278778,-3.797502722591162e-05,13.410270690917969,6.895010948181152,6.515260696411133,1831.0,1800.0,0.0,0.0,-0.020439716055989265,0.0536409430205822,-0.12918496131896973,0.004159198142588139,-0.07016930729150772,-0.003937105182558298,-0.07847774773836136,0.12568795680999756,0.23197922110557556,-0.035363420844078064,0.09145467728376389,-3.7975016311975196e-05,1.0,0.2676202952861786,0.857162356376648,0,0.0,0,0,0,0,0,0.0,0.0,0,671045418,1361,342
827477062,5,428,4987,2725,81859677,81860,78306,396,-5111,8935,-827,25,637,140,28.09375,-0.15210594236850739,0.17952623963356018,1.0761451721191406,-3.9300026893615723,3.929011344909668,16.403661727905273,1.033212661743164,-1.1148536205291748,-7.4917778968811035,1584,1500,1239,1500,2000,1503,1000,1000,1301,1485,1534,1835,1796,1531,1490,110,46,3060,3068,3,92.78999999999999,2.79,89.1,-0.8999999999999999,1,1,1,1,1,1,1,0,1,1,0,0,stabilized_mix,0.7259827852249146,0.733901858329773,-1.1050809621810913,0.07446382194757462,0.03695433586835861,-0.04167764261364937,0.0,0.13439999520778656,-0.07446382194757462,0.09744565933942795,0.0,0.0,0.0,0.0,0.0,0.0,0.0,0.0,0.0,0.0,0.0,0.0,0.0,0.0,0.0,0.0,0.0,0.0,0.2609187960624695,-0.2417680025100708,13.40555191040039,0.019461030140519142,0.018029548227787018,-0.029201935976743698,-0.0012906999327242374,-0.024801332503557205,0.02428840845823288,-0.05312243103981018,0.0238785482943058,0.00533449649810791,-0.14314895868301392,-4.823505878448486e-05,13.410270690917969,6.946310997009277,6.46396017074585,1835.0,1796.0,0.0,0.0,-0.015585124492645264,0.03443725407123566,-0.12862558662891388,-0.0024301023222506046,-0.05382552742958069,-0.003034900175407529,-0.06859148293733597,0.06857418268918991,0.28629791736602783,-0.026972925290465355,0.0587303452193737,-4.823505878448486e-05,1.0,0.171825110912323,0.857162356376648,0,0.0,0,0,0,0,0,0.0,0.0,0,289877003,1361,342
827477062,5,428,4988,2725,81863711,81864,78310,400,3893,9928,-2878,166,566,149,28.125,0.2214934378862381,-0.14031609892845154,1.055366039276123,-4.454391956329346,-4.3845391273498535,18.732046127319336,1.0533500909805298,-1.0216953754425049,-7.413346290588379,1584,1500,1239,1500,2000,1503,1000,1000,1301,1484,1481,1839,1793,1531,1490,114,50,3060,3068,3,92.78999999999999,2.79,89.1,-0.8999999999999999,1,1,1,1,1,1,1,0,1,1,0,0,stabilized_mix,1.0722848176956177,0.7208477258682251,-1.082261085510254,0.0769883543252945,0.03905180096626282,-0.04607013612985611,0.0,0.13439999520778656,-0.0769883543252945,0.09534819424152374,0.0,0.0,0.0,0.0,0.0,0.0,0.0,0.0,0.0,0.0,0.0,0.0,0.0,0.0,0.0,0.0,0.0,0.0,0.2391185760498047,-0.2464870661497116,13.40587329864502,0.017834961414337158,0.018381502479314804,0.0007394260610453784,-0.0009407608886249363,0.027677547186613083,0.02752893976867199,0.029583033174276352,0.025465261191129684,0.002596735954284668,-0.16346794366836548,-5.6304968893527985e-05,13.410270690917969,6.986660480499268,6.423610687255859,1839.0,1793.0,0.0,0.0,-0.016640741378068924,-0.019168497994542122,-0.12776994705200195,-0.0017736013978719711,0.0013646632432937622,-0.0015934279654175043,-0.07774380594491959,-0.07652464509010315,0.32693588733673096,-0.028766166418790817,-0.032716039568185806,-5.630492159980349e-05,1.0,0.09571980684995651,0.857162356376648,0,0.0,0,0,0,0,0,0.0,0.0,0,1953687218,1361,342
827477062,5,428,4989,2725,81867745,81868,78314,388,-719,8490,8603,-393,486,17,28.03125,-0.1942809820175171,-0.08247292786836624,1.0963743925094604,-1.2717747688293457,7.007351398468018,19.24125099182129,0.9497227072715759,-0.9976614713668823,-7.330645561218262,1584,1500,1239,1500,2000,1503,1000,1000,1301,1499,1552,1840,1792,1531,1490,118,54,3060,3068,3,92.78999999999999,2.79,89.1,-0.8999999999999999,1,1,1,1,1,1,1,0,1,1,0,0,stabilized_mix,1.1101856231689453,0.9937720894813538,-1.2465252876281738,0.07283814996480942,0.037216756492853165,-0.05079582706093788,0.0,0.13439999520778656,-0.07283814996480942,0.0971832424402237,0.0,0.0,0.0,0.0,0.0,0.0,0.0,0.0,0.0,0.0,0.0,0.0,0.0,0.0,0.0,0.0,0.0,0.0,0.23349425196647644,-0.22224190831184387,13.40639591217041,0.017414871603250504,0.01657327264547348,-0.03834349662065506,-0.00831824354827404,-0.0442301481962204,0.007858049124479294,-0.08230159431695938,0.0013841770123690367,-0.0002900660037994385,-0.1679115891456604,-5.8870529755949974e-05,13.410270690917969,6.999488353729248,6.410782814025879,1840.0,1792.0,0.0,0.0,-0.0008988961926661432,0.05334051698446274,-0.12813687324523926,-0.015660101547837257,-0.07069079577922821,-0.00042485480662435293,-0.022196656093001366,0.12230135500431061,0.3358231782913208,-0.001562878955155611,0.09095747023820877,-5.8870577049674466e-05,1.0,0.26603513956069946,0.857162356376648,0,0.0,0,0,0,0,0,0.0,0.0,0,3272643136,1361,342
827477062,5,428,4990,2725,81871777,81872,78318,380,-2789,7242,-8842,295,855,75,27.96875,0.050089091062545776,0.12818729877471924,1.0578093528747559,-1.8082343339920044,-2.2560160160064697,23.181325912475586,0.9671412110328674,-1.1076819896697998,-7.24781608581543,1584,1500,1239,1500,2000,1503,1000,1000,1301,1499,1496,1845,1786,1531,1490,122,58,3060,3068,3,92.78999999999999,2.79,89.1,-0.8999999999999999,1,1,1,1,1,1,1,0,1,1,0,0,stabilized_mix,0.8139951229095459,0.8729453086853027,-1.3891922235488892,0.07507428526878357,0.04058445990085602,-0.056224267929792404,0.0,0.13439999520778656,-0.07507428526878357,0.09381553530693054,0.0,0.0,0.0,0.0,0.0,0.0,0.0,0.0,0.0,0.0,0.0,0.0,0.0,0.0,0.0,0.0,0.0,0.0,0.2592405378818512,-0.2263096421957016,13.405854225158691,0.01933545060455799,0.016876647248864174,-0.008143273182213306,-0.008155257441103458,0.01423604879528284,0.01117528136819601,0.006676405668258667,0.002304564695805311,-0.003181368112564087,-0.2022952288389206,-7.191684562712908e-05,13.410270690917969,7.0647196769714355,6.345551490783691,1845.0,1786.0,0.0,0.0,-0.0015040329890325665,-0.004329891409724951,-0.12808242440223694,-0.015355546958744526,-0.015015716664493084,0.0014460048405453563,-0.031559642404317856,-0.039374906569719315,0.4045904576778412,-0.0026036379858851433,-0.007387268822640181,-7.191680924734101e-05,1.0,0.02160654403269291,0.857162356376648,0,0.0,0,0,0,0,0,0.0,0.0,0,194463247,1362,343
827477062,5,428,4991,2725,81875808,81876,78322,368,-325,10609,2666,-11,1173,38,27.875,0.12532979249954224,-0.06651988625526428,1.1208410263061523,-2.558572769165039,-4.589603424072266,29.912429809570312,0.9190233945846558,-0.9755136370658875,-7.14245080947876,1584,1500,1239,1500,2000,1503,1000,1000,1301,1495,1480,1854,1778,1531,1490,126,62,3060,3068,3,92.78999999999999,2.79,89.1,-0.8999999999999999,1,1,1,1,1,1,1,0,1,1,0,0,stabilized_mix,1.2601686716079712,0.9647483825683594,-1.3794676065444946,0.07075615227222443,0.03883974999189377,-0.0616561621427536,0.0,0.13439999520778656,-0.07075615227222443,0.09556024521589279,0.0,0.0,0.0,0.0,0.0,0.0,0.0,0.0,0.0,0.0,0.0,0.0,0.0,0.0,0.0,0.0,0.0,0.0,0.228311225771904,-0.21506014466285706,13.406601905822754,0.017028113827109337,0.01603766158223152,0.0020169431809335947,-0.005597827024757862,0.02896464616060257,0.0158107727766037,0.032051779329776764,0.008337417617440224,-0.006859302520751953,-0.2610352039337158,-9.376311209052801e-05,13.410270690917969,7.173951148986816,6.2363200187683105,1854.0,1778.0,0.0,0.0,-0.005436016246676445,-0.020781518891453743,-0.12797598540782928,-0.01054101251065731,0.0037196995690464973,0.00335617340169847,-0.04465552046895027,-0.08010368794202805,0.5220704078674316,-0.009419429115951061,-0.03545411676168442,-9.376307571073994e-05,1.0,0.10370077192783356,0.857162356376648,0,0.0,0,0,0,0,0,0.0,0.0,0,67180073,1362,343
827477062,5,428,4992,2725,81879839,81880,78326,400,613,10939,3476,-66,547,41,28.125,-0.2808639705181122,-0.06407348066568375,1.17012357711792,-0.6815083026885986,3.142603874206543,25.202373504638672,0.8579361438751221,-1.0971347093582153,-7.022828102111816,1584,1500,1325,1500,2000,1503,1000,1000,1373,1503,1529,1849,1783,1531,1490,130,66,3060,3068,3,92.78999999999999,2.79,89.1,-0.8999999999999999,1,1,1,1,1,1,1,0,1,1,0,0,stabilized_mix,0.860949695110321,1.0557212829589844,-1.5829883813858032,0.07379551231861115,0.04231472685933113,-0.06760255247354507,0.0,0.13439999520778656,-0.07379551231861115,0.09208527207374573,0.0,0.0,0.0,0.0,0.0,0.0,0.0,0.0,0.0,0.0,0.0,0.0,0.0,0.0,0.0,0.0,0.0,0.0,0.25677239894866943,-0.20075851678848267,13.4063081741333,0.019150761887431145,0.01497106533497572,-0.026661280542612076,-0.009360870346426964,-0.019830279052257538,0.004212451167404652,-0.04626506567001343,-0.004066243767738342,-0.011034920811653137,-0.2199321985244751,-8.083845023065805e-05,13.410270690917969,7.109327793121338,6.300943374633789,1849.0,1783.0,0.0,0.0,0.002631719456985593,0.029999978840351105,-0.12800998985767365,-0.017623353749513626,-0.04915914684534073,0.005133297760039568,-0.01189456321299076,0.05484878271818161,0.4398643970489502,0.004594204481691122,0.051169998943805695,-8.083848661044613e-05,1.0,0.14966465532779694,0.857162356376648,0,0.0,0,0,0,0,0,0.0,0.0,0,3141150199,1362,343
827477062,5,428,4993,2725,81883957,81884,78330,386,3765,9733,-7939,237,742,34,28.015625,0.2538601756095886,-0.0918455421924591,1.0888601541519165,-0.8653426766395569,-6.918817520141602,22.368789672851562,0.8230862617492676,-1.0786141157150269,-6.931983947753906,1584,1500,1325,1500,2000,1503,1000,1000,1373,1504,1467,1846,1786,1531,1490,134,70,3060,3068,3,92.78999999999999,2.79,89.1,-0.8999999999999999,1,1,1,1,1,1,1,0,1,1,0,0,stabilized_mix,1.0063389539718628,1.0468121767044067,-1.616487979888916,0.0681571215391159,0.03942190855741501,-0.07425851374864578,0.0,0.13439999520778656,-0.0681571215391159,0.09497808665037155,0.0,0.0,0.0,0.0,0.0,0.0,0.0,0.0,0.0,0.0,0.0,0.0,0.0,0.0,0.0,0.0,0.0,0.0,0.25243836641311646,-0.19260534644126892,13.406510353088379,0.01882731169462204,0.014363019727170467,0.00804500374943018,-0.009842636063694954,0.043671682476997375,0.005348554812371731,0.051995910704135895,-0.006609294563531876,-0.014205992221832275,-0.19520451128482819,-7.329368963837624e-05,13.410270690917969,7.071604251861572,6.338667392730713,1846.0,1786.0,0.0,0.0,0.004361134488135576,-0.03369808942079544,-0.12823586165905,-0.018533989787101746,0.014834903180599213,0.007321160286664963,-0.015103078447282314,-0.12075614184141159,0.39040902256965637,0.0074670203030109406,-0.05750204995274544,-7.329367508646101e-05,1.0,0.1681872308254242,0.857162356376648,0,0.0,0,0,0,0,0,0.0,0.0,0,249347625,1362,343
827477062,5,428,4994,2725,81887906,81888,78334,412,2590,8728,9733,-246,1067,18,28.21875,-0.1647910326719284,0.020246021449565887,1.1090850830078125,-0.4094340205192566,1.829988956451416,31.193222045898438,0.8441674709320068,-1.0254172086715698,-6.819460391998291,1583,1500,1325,1500,2000,1503,1000,1000,1373,1504,1521,1858,1775,1531,1490,138,74,3060,3068,3,92.78999999999999,2.79,89.1,-0.8999999999999999,1,1,1,1,1,1,1,0,1,1,0,0,stabilized_mix,1.163755178451538,0.8916264176368713,-1.674836277961731,0.07157890498638153,0.04244263097643852,-0.08067255467176437,0.0,0.13279999792575836,-0.07157890498638153,0.09035736322402954,0.0,0.0,0.0,0.0,0.0,0.0,0.0,0.0,0.0,0.0,0.0,0.0,0.0,0.0,0.0,0.0,0.0,0.0,0.2399895340204239,-0.19754146039485931,13.406667709350586,0.01789884828031063,0.014731143601238728,-0.02117251232266426,-0.010202161967754364,-0.011546791531145573,0.0025298676919192076,-0.032545529305934906,-0.006894518621265888,-0.018133804202079773,-0.2722122073173523,-0.00010162114631384611,13.410270690917969,7.2132415771484375,6.197030067443848,1858.0,1775.0,0.0,0.0,0.004472306929528713,0.02110998146235943,-0.12799452245235443,-0.01921134628355503,-0.039039917290210724,0.008770057000219822,-0.007145971525460482,0.03193933144211769,0.5444244146347046,0.007787688635289669,0.03600263595581055,-0.00010162110265810043,1.0,0.10530399531126022,0.857162356376648,0,0.0,0,0,0,0,0,0.0,0.0,0,2841948758,1362,343
827477062,5,428,4995,2725,81891939,81892,78338,400,2918,8040,-5651,412,740,39,28.125,-0.04510274529457092,-0.16325342655181885,1.1218270063400269,-1.5774847269058228,-5.3665618896484375,25.128522872924805,0.7694580554962158,-1.1842231750488281,-6.707913398742676,1584,1500,1325,1500,2000,1503,1000,1000,1373,1499,1477,1851,1782,1531,1490,142,78,3060,3068,3,92.78999999999999,2.79,89.1,-0.8999999999999999,1,1,1,1,1,1,1,0,1,1,0,0,stabilized_mix,0.7286658883094788,1.0450085401535034,-1.818031907081604,0.07344499975442886,0.045476753264665604,-0.08776342868804932,0.0,0.13439999520778656,-0.07344499975442886,0.08892324566841125,0.0,0.0,0.0,0.0,0.0,0.0,0.0,0.0,0.0,0.0,0.0,0.0,0.0,0.0,0.0,0.0,0.0,0.0,0.2771517038345337,-0.18005038797855377,13.406197547912598,0.020670456811785698,0.013426708988845348,0.0013122714590281248,-0.006561357527971268,0.033868588507175446,0.009749158285558224,0.035735733807086945,0.0013458274770528078,-0.022027522325515747,-0.2192877233028412,-8.446036372333765e-05,13.410270690917969,7.127437591552734,6.282833576202393,1851.0,1782.0,0.0,0.0,-0.0008355240570381284,-0.023169076070189476,-0.12806957960128784,-0.01235237903892994,0.002421898767352104,0.011008881032466888,-0.02753230184316635,-0.09366417676210403,0.4385754466056824,-0.0015208516269922256,-0.03953041136264801,-8.44603346195072e-05,1.0,0.1156197264790535,0.857162356376648,0,0.0,0,0,0,0,0,0.0,0.0,0,1731998080,1362,343
827477062,5,428,4996,2725,81895973,81896,78342,388,-4022,8446,1689,-222,851,28,28.03125,0.1402982473373413,0.14055019617080688,1.1458362340927124,-0.12371796369552612,0.9514753818511963,25.86256217956543,0.7653088569641113,-1.0794334411621094,-6.606272220611572,1584,1500,1325,1500,2000,1503,1000,1000,1373,1506,1516,1852,1780,1531,1490,146,82,3060,3068,3,92.78999999999999,2.79,89.1,-0.8999999999999999,1,1,1,1,1,1,1,0,1,1,0,0,stabilized_mix,1.1175172328948975,0.9319327473640442,-1.886399269104004,0.06819549202919006,0.04354996606707573,-0.09515172988176346,0.0,0.13439999520778656,-0.06819549202919006,0.09085002541542053,0.0,0.0,0.0,0.0,0.0,0.0,0.0,0.0,0.0,0.0,0.0,0.0,0.0,0.0,0.0,0.0,0.0,0.0,0.2526300847530365,-0.17908601462841034,13.406694412231445,0.018841348588466644,0.013354789465665817,-0.019034529104828835,-0.010230924002826214,-0.0060028936713933945,0.0007633945206180215,-0.024995479732751846,-0.009128376841545105,-0.02557547390460968,-0.22569343447685242,-8.794409222900867e-05,13.410270690917969,7.144855976104736,6.265415191650391,1852.0,1780.0,0.0,0.0,0.005929370876401663,0.016220347955822945,-0.12799276411533356,-0.01926201581954956,-0.035096675157547,0.012558415532112122,-0.0021592858247458935,0.016606377437710762,0.45138686895370483,0.010313828475773335,0.027651190757751465,-8.794412133283913e-05,1.0,0.08087832480669022,0.857162356376648,0,0.0,0,0,0,0,0,0.0,0.0,0,3677965298,1362,343
827477062,5,428,4997,2725,81900007,81900,78346,402,6898,10673,-938,180,1134,7,28.140625,-0.10043369978666306,-0.22427845001220703,1.1883618831634521,-1.3134849071502686,0.004374980926513672,30.800491333007812,0.716352105140686,-1.1448657512664795,-6.4934163093566895,1584,1500,1325,1500,2000,1503,1000,1000,1373,1499,1510,1860,1774,1531,1490,150,86,3060,3068,3,92.78999999999999,2.79,89.1,-0.8999999999999999,1,1,1,1,1,1,1,0,1,1,0,0,stabilized_mix,0.8897712826728821,1.0176485776901245,-1.9779632091522217,0.070607490837574,0.046297259628772736,-0.10281801223754883,0.0,0.13439999520778656,-0.070607490837574,0.08810273557901382,0.0,0.0,0.0,0.0,0.0,0.0,0.0,0.0,0.0,0.0,0.0,0.0,0.0,0.0,0.0,0.0,0.0,0.0,0.2679418623447418,-0.1676267832517624,13.406545639038086,0.019983239471912384,0.012500206008553505,-0.016501061618328094,-0.005772796459496021,-2.756369394774083e-05,0.008116908371448517,-0.015964172780513763,0.002345310989767313,-0.02951487898826599,-0.2687849998474121,-0.0001044049859046936,13.410270690917969,7.227160453796387,6.18311071395874,1860.0,1774.0,0.0,0.0,-0.0015592299168929458,0.010348357260227203,-0.1281050741672516,-0.010868997313082218,-0.0304263848811388,0.014557382091879845,-0.02292463555932045,7.635782094439492e-05,0.5375699996948242,-0.0026505347341299057,0.017662184312939644,-0.00010440495680086315,1.0,0.05165897682309151,0.857162356376648,0,0.0,0,0,0,0,0,0.0,0.0,0,1124977080,1362,343
827477062,5,428,4998,2725,81904040,81904,78350,396,-5791,10337,-1850,-194,850,-52,28.09375,0.04179324954748154,0.18385905027389526,1.2136614322662354,1.9044479131698608,0.300692081451416,29.00274085998535,0.6896897554397583,-1.157768726348877,-6.369931221008301,1584,1500,1325,1500,2000,1503,1000,1000,1373,1518,1513,1858,1775,1531,1490,154,90,3060,3068,3,92.78999999999999,2.79,89.1,-0.8999999999999999,1,1,1,1,1,1,1,0,1,1,0,0,stabilized_mix,0.9165070652961731,0.9463651180267334,-2.1320536136627197,0.06545757502317429,0.044202595949172974,-0.11102314293384552,0.0,0.13439999520778656,-0.06545757502317429,0.09019739925861359,0.0,0.0,0.0,0.0,0.0,0.0,0.0,0.0,0.0,0.0,0.0,0.0,0.0,0.0,0.0,0.0,0.0,0.0,0.2709612548351288,-0.1613873690366745,13.406561851501465,0.020208340138196945,0.01203489862382412,-0.01835142821073532,-0.01589226722717285,-0.0018971012905240059,-0.01176969800144434,-0.021019114181399345,-0.0275433212518692,-0.03382532298564911,-0.25309666991233826,-0.00010042265057563782,13.410270690917969,7.207248687744141,6.203022480010986,1858.0,1775.0,0.0,0.0,0.01795283332467079,0.013680174946784973,-0.12784333527088165,-0.029920652508735657,-0.03382498770952225,0.016762053593993187,0.033238887786865234,0.00524806696921587,0.5061933398246765,0.0311133936047554,0.02324642241001129,-0.00010042268695542589,1.0,0.0891217514872551,0.857162356376648,0,0.0,0,0,0,0,0,0.0,0.0,0,1896317069,1363,344
827477062,5,428,4999,2725,81907103,81908,78353,400,6294,11660,-184,-139,985,111,28.125,-0.05370906740427017,0.0018724799156188965,1.1502845287322998,-1.5906360149383545,4.901963233947754,27.226415634155273,0.7568971514701843,-1.167037010192871,-6.288509368896484,1584,1500,1325,1500,2000,1503,1000,1000,1373,1496,1541,1855,1777,1531,1490,158,94,3060,3068,3,92.78999999999999,2.79,89.1,-0.8999999999999999,1,1,1,1,1,1,1,0,1,1,0,0,stabilized_mix,0.8632397651672363,0.7024375796318054,-2.144055128097534,0.06689740717411041,0.04568943381309509,-0.11749127507209778,0.0,0.13439999520778656,-0.06689740717411041,0.08871056139469147,0.0,0.0,0.0,0.0,0.0,0.0,0.0,0.0,0.0,0.0,0.0,0.0,0.0,0.0,0.0,0.0,0.0,0.0,0.27313005924224854,-0.1771124303340912,13.406318664550781,0.02037041448056698,0.013207606971263885,-0.03359294682741165,-0.00459594652056694,-0.030937250703573227,0.009830651804804802,-0.0639585554599762,0.00705510750412941,-0.03666748106479645,-0.23759528994560242,-9.59919998422265e-05,13.410270690917969,7.18509578704834,6.225175380706787,1855.0,1777.0,0.0,0.0,-0.00474143261089921,0.04144694283604622,-0.12828540802001953,-0.008655177429318428,-0.06193406879901886,0.017963919788599014,-0.027761835604906082,0.08555539697408676,0.47519057989120483,-0.007970809936523438,0.07071441411972046,-9.599197073839605e-05,1.0,0.20683260262012482,0.857162356376648,0,0.0,0,0,0,0,0,0.0,0.0,0,598381477,1363,344
827477062,5,428,5000,2725,81911138,81912,78357,392,-8190,10537,38,16,960,-176,28.0625,0.0289541557431221,0.06734752655029297,1.2113386392593384,2.56207013130188,-1.5074849128723145,33.69058609008789,0.6576815843582153,-1.1536827087402344,-6.154784202575684,1584,1500,1325,1500,2000,1503,1000,1000,1373,1522,1503,1868,1770,1531,1490,162,98,3060,3068,3,92.78999999999999,2.79,89.1,-0.8999999999999999,1,1,1,1,1,1,1,0,1,1,0,0,stabilized_mix,0.9467287063598633,0.9201338291168213,-2.296931028366089,0.0688253790140152,0.04826154187321663,-0.12638060748577118,0.0,0.13439999520778656,-0.0688253790140152,0.08613845705986023,0.0,0.0,0.0,0.0,0.0,0.0,0.0,0.0,0.0,0.0,0.0,0.0,0.0,0.0,0.0,0.0,0.0,0.0,0.27000507712364197,-0.15389801561832428,13.406668663024902,0.020136889070272446,0.011476382613182068,-0.01231138501316309,-0.017951155081391335,0.00951666571199894,-0.01583234593272209,-0.003996735438704491,-0.03448218107223511,-0.04133537411689758,-0.294005811214447,-0.00011736946180462837,13.410270690917969,7.291983127593994,6.118288516998291,1868.0,1770.0,0.0,0.0,0.02251243032515049,0.0026730007957667112,-0.1280287504196167,-0.0337967649102211,-0.022686906158924103,0.02072644606232643,0.04471655935049057,-0.026310574263334274,0.588011622428894,0.038948286324739456,0.004419698379933834,-0.00011736941087292507,1.0,0.11156415939331055,0.857162356376648,0,0.0,0,0,0,0,0,0.0,0.0,0,2934329365,1363,344
827477062,5,428,5001,2725,81915169,81916,78361,404,6275,11117,846,-80,760,104,28.15625,-0.07079990208148956,-0.06664639711380005,1.145829439163208,-1.4566917419433594,2.2044594287872314,23.081212997436523,0.7165316939353943,-1.1622464656829834,-6.049949645996094,1584,1500,1325,1500,2000,1503,1000,1000,1373,1497,1524,1851,1781,1531,1490,166,102,3060,3068,3,92.78999999999999,2.79,89.1,-0.8999999999999999,1,1,1,1,1,1,1,0,1,1,0,0,stabilized_mix,0.903664767742157,0.6995064616203308,-2.3482961654663086,0.0636422336101532,0.04491671174764633,-0.13574036955833435,0.0,0.13439999520778656,-0.0636422336101532,0.08948328346014023,0.0,0.0,0.0,0.0,0.0,0.0,0.0,0.0,0.0,0.0,0.0,0.0,0.0,0.0,0.0,0.0,0.0,0.0,0.2720090448856354,-0.16766777634620667,13.406462669372559,0.020286614075303078,0.012503263540565968,-0.024381887167692184,-0.004977044649422169,-0.013910078443586826,0.009001343511044979,-0.03783057630062103,0.004720582626760006,-0.0449947863817215,-0.2014215737581253,-8.624570909887552e-05,13.410270690917969,7.136363983154297,6.27390718460083,1851.0,1781.0,0.0,0.0,-0.0031779708806425333,0.02451837994158268,-0.12816683948040009,-0.009369629435241222,-0.044957809150218964,0.022215548902750015,-0.025424066931009293,0.038475073873996735,0.4028431475162506,-0.005332895088940859,0.04184596240520477,-8.624572365079075e-05,1.0,0.12239357829093933,0.857162356376648,0,0.0,0,0,0,0,0,0.0,0.0,0,603172457,1363,344
827477062,5,428,5002,2725,81919200,81920,78365,392,-7504,9771,-445,-37,1303,-169,28.0625,0.03308253362774849,0.06944975256919861,1.245019793510437,2.96427059173584,-0.21075531840324402,38.887508392333984,0.6180746555328369,-1.1465221643447876,-5.916311740875244,1584,1500,1325,1500,2000,1503,1000,1000,1373,1523,1511,1878,1764,1531,1490,170,106,3060,3068,3,92.78999999999999,2.79,89.1,-0.8999999999999999,1,1,1,1,1,1,1,0,1,1,0,0,stabilized_mix,0.9841381311416626,0.9058820009231567,-2.549349069595337,0.06560036540031433,0.04737091064453125,-0.1455269604921341,0.0,0.13439999520778656,-0.06560036540031433,0.08702908456325531,0.0,0.0,0.0,0.0,0.0,0.0,0.0,0.0,0.0,0.0,0.0,0.0,0.0,0.0,0.0,0.0,0.0,0.0,0.2683294713497162,-0.14463068544864655,13.406805992126465,0.020011750981211662,0.010785277932882309,-0.01684141531586647,-0.018423333764076233,0.0013314462266862392,-0.018317872658371925,-0.017117051407694817,-0.036859847605228424,-0.04965963959693909,-0.33935752511024475,-0.00013615598436444998,13.410270690917969,7.385915756225586,6.024355888366699,1878.0,1764.0,0.0,0.0,0.024028662592172623,0.01119841169565916,-0.12781980633735657,-0.034687213599681854,-0.031031301245093346,0.024757280945777893,0.05173628032207489,-0.0036783742252737284,0.6787150502204895,0.04163329303264618,0.018925964832305908,-0.0001361559989163652,1.0,0.11925513297319412,0.857162356376648,0,0.0,0,0,0,0,0,0.0,0.0,0,2147956769,1363,344
827477062,5,428,5003,2725,81923210,81924,78369,392,8003,12488,1572,51,877,99,28.0625,0.009159430861473083,-0.15499746799468994,1.2051101922988892,-1.5691696405410767,-0.4655715227127075,28.894882202148438,0.645713210105896,-1.1103079319000244,-5.786009311676025,1584,1500,1325,1500,2000,1503,1000,1000,1373,1496,1507,1862,1773,1531,1490,174,110,3060,3068,3,92.78999999999999,2.79,89.1,-0.8999999999999999,1,1,1,1,1,1,1,0,1,1,0,0,stabilized_mix,1.0661333799362183,0.7890070676803589,-2.5606794357299805,0.06794069707393646,0.0492720901966095,-0.15565837919712067,0.0,0.13439999520778656,-0.06794069707393646,0.08512790501117706,0.0,0.0,0.0,0.0,0.0,0.0,0.0,0.0,0.0,0.0,0.0,0.0,0.0,0.0,0.0,0.0,0.0,0.0,0.2598550617694855,-0.1510997861623764,13.406901359558105,0.019379759207367897,0.01126770582050085,-0.014420605264604092,-0.003946402110159397,0.002937331097200513,0.009696428664028645,-0.010851706378161907,0.005566668696701527,-0.05420805513858795,-0.2521554231643677,-0.00010722724255174398,13.410270690917969,7.24127197265625,6.168999195098877,1862.0,1773.0,0.0,0.0,-0.0036684584338217974,0.0070191072300076485,-0.12811468541622162,-0.007430954836308956,-0.026591382920742035,0.026925522834062576,-0.02738717570900917,-0.008125755935907364,0.5043108463287354,-0.006288738455623388,0.012004966847598553,-0.00010722720617195591,1.0,0.03511299937963486,0.857162356376648,0,0.0,0,0,0,0,0,0.0,0.0,0,2845972004,1363,344
827477062,5,428,5004,2725,81927239,81928,78373,396,-5019,9672,-65,-88,1020,-127,28.09375,-0.00833949726074934,0.1263429820537567,1.2693347930908203,2.93790340423584,0.5142070055007935,33.94474792480469,0.5902355313301086,-1.1166329383850098,-5.65382194519043,1583,1500,1327,1500,2000,1503,1000,1000,1375,1523,1515,1871,1767,1531,1490,178,114,3060,3068,3,92.78999999999999,2.79,89.1,-0.8999999999999999,1,1,1,1,1,1,1,0,1,1,0,0,stabilized_mix,1.0358765125274658,0.81374192237854,-2.776902198791504,0.06341344863176346,0.045358724892139435,-0.1663033813238144,0.0,0.13279999792575836,-0.06341344863176346,0.08744127303361893,0.0,0.0,0.0,0.0,0.0,0.0,0.0,0.0,0.0,0.0,0.0,0.0,0.0,0.0,-0.0,0.0,0.0,0.0,0.261335164308548,-0.1381179541349411,13.407012939453125,0.01948995515704155,0.01029959786683321,-0.018756495788693428,-0.017768993973731995,-0.0032465236727148294,-0.018154889345169067,-0.02339678257703781,-0.03569258749485016,-0.058822259306907654,-0.29622381925582886,-0.00012426613830029964,13.410270690917969,7.3264665603637695,6.083805084228516,1871.0,1767.0,0.0,0.0,0.023238910362124443,0.015284135937690735,-0.12773370742797852,-0.03345593065023422,-0.03456524387001991,0.029267484322190285,0.05127608776092529,0.008974605239927769,0.5924476385116577,0.0403146892786026,0.025867655873298645,-0.00012426612374838442,1.0,0.11547810584306717,0.857162356376648,0,0.0,0,0,0,0,0,0.0,0.0,0,1914083797,1363,344
