magic,version,size,sequence,dropped_records,timestamp_us,tick_ms,imu_sequence,raw_temperature,raw_accel_x,raw_accel_y,raw_accel_z,raw_gyro_x,raw_gyro_y,raw_gyro_z,temperature_c,accel_x_g,accel_y_g,accel_z_g,gyro_x_dps,gyro_y_dps,gyro_z_dps,roll_deg,pitch_deg,yaw_deg,rc_ch1_us,rc_ch2_us,rc_ch3_us,rc_ch4_us,rc_ch5_us,rc_ch6_us,rc_ch7_us,rc_ch8_us,throttle_us,servo_alpha_us,servo_beta_us,motor_upper_us,motor_lower_us,servo_alpha_feedback_us,servo_beta_feedback_us,servo_alpha_feedback_age_ms,servo_beta_feedback_age_ms,servo_alpha_feedback_sequence,servo_beta_feedback_sequence,servo_feedback_valid_mask,servo_alpha_feedback_deg,servo_alpha_feedback_tilt_deg,servo_beta_feedback_deg,servo_beta_feedback_tilt_deg,rc_armed,rc_link_ok,throttle_over_20,imu_valid,motor_output_reason,rc_link_seen,arm_switch_high,arm_throttle_low,arm_switch_seen_low,arm_switch_prev_high,imu_fault_latched,imu_fault_reason,motor_output_reason_name,acc_nav_m_s2_0,acc_nav_m_s2_1,acc_nav_m_s2_2,vel_est_m_s_0,vel_est_m_s_1,vel_est_m_s_2,vel_ref_m_s_0,vel_ref_m_s_1,vel_err_m_s_0,vel_err_m_s_1,vel_pid_out_m_s2_0,vel_pid_out_m_s2_1,vel_pid_p_m_s2_0,vel_pid_p_m_s2_1,vel_pid_i_m_s2_0,vel_pid_i_m_s2_1,vel_pid_d_m_s2_0,vel_pid_d_m_s2_1,vel_loop_active,ctrl_pos_p_m_s2_0,ctrl_pos_p_m_s2_1,ctrl_pos_p_m_s2_2,ctrl_vel_d_m_s2_0,ctrl_vel_d_m_s2_1,ctrl_vel_d_m_s2_2,ctrl_accel_out_m_s2_0,ctrl_accel_out_m_s2_1,ctrl_accel_out_m_s2_2,ctrl_force_cmd_n_0,ctrl_force_cmd_n_1,ctrl_force_cmd_n_2,ctrl_tilt_ff_rad_0,ctrl_tilt_ff_rad_1,ctrl_tilt_angle_p_rad_0,ctrl_tilt_angle_p_rad_1,ctrl_tilt_rate_d_rad_0,ctrl_tilt_rate_d_rad_1,ctrl_tilt_out_rad_0,ctrl_tilt_out_rad_1,ctrl_yaw_angle_p_rad_s,ctrl_yaw_rate_d_rad_s,ctrl_yaw_torque_cmd,ctrl_total_force_n,ctrl_motor_thrust_cmd_n_0,ctrl_motor_thrust_cmd_n_1,ctrl_motor_cmd_us_0,ctrl_motor_cmd_us_1,ctrl_velocity_integral_m_0,ctrl_velocity_integral_m_1,ctrl_desired_attitude_rpy_rad_0,ctrl_desired_attitude_rpy_rad_1,ctrl_desired_attitude_rpy_rad_2,ctrl_attitude_error_0,ctrl_attitude_error_1,ctrl_attitude_error_2,ctrl_rate_error_rad_s_0,ctrl_rate_error_rad_s_1,ctrl_rate_error_rad_s_2,ctrl_moment_cmd_n_m_0,ctrl_moment_cmd_n_m_1,ctrl_moment_cmd_n_m_2,ctrl_horizontal_command_scale,ctrl_moment_utilization,ctrl_thrust_utilization,ctrl_protection_flags,z_ref_m,ident_att_active,ident_att_axis,ident_att_mode,ident_att_reserved,ident_att_seq,ident_att_signal_rad,ident_att_signal_m_s2,ident_att_elapsed_ms,record_crc32,sector_seq,sector_index
827477062,5,428,1,0,7704006,7704,4777,-32,217,8738,1323,1,-114,13,24.75,-0.044122882187366486,-0.004119690041989088,1.020862340927124,-0.5803409218788147,-0.793350100517273,-3.4206061363220215,-0.14271283149719238,-0.6121861338615417,0.20673297345638275,1580,1500,1264,1500,2000,1503,1000,1000,1322,1439,1501,1814,1822,1489,1490,18,8,239,242,3,89.00999999999999,-0.99,89.1,-0.8999999999999999,1,1,1,1,1,1,1,0,1,1,0,0,stabilized_mix,-0.012844727374613285,0.0024699531495571136,-0.005363102070987225,-1.2723009604087565e-05,2.4465477963531157e-06,-5.318877811077982e-06,0.0,0.12800000607967377,1.2723009604087565e-05,0.12799756228923798,0.00010816286521730945,1.0881531238555908,0.00010816286521730945,1.0881531238555908,-0.0,-0.0,0.0,0.0,1.0,0.00010816286521730945,1.0881531238555908,0.0010761593002825975,-0.0,-0.0,-0.0,0.00010816286521730945,1.0881531238555908,0.0010761593002825975,0.14878050982952118,1.5208871364593506,13.404229164123535,0.011099064722657204,-0.112973153591156,-0.006508626975119114,0.09262959659099579,0.0049986159428954124,0.003565303748473525,-0.0015375749208033085,0.0962488204240799,0.0,0.029850419610738754,1.0447693057358265e-05,13.491055488586426,6.693289279937744,6.797766208648682,1814.0,1822.0,0.0,0.0,-0.17363828420639038,0.0014060977846384048,0.003387728938832879,0.1752144694328308,-0.012018310837447643,-0.0008105819579213858,-0.010128859430551529,-0.013846571557223797,-0.05970083922147751,-0.10922209918498993,0.0017029859591275454,1.0447646673128475e-05,0.5440765619277954,0.3109843134880066,0.8623260259628296,2,0.005619775969535112,0,0,0,0,0,0.0,0.0,0,76568105,1,0
827477062,5,428,2,0,7708028,7708,4781,-22,121,7625,-1835,-62,-170,13,24.828125,0.086647167801857,0.0016117282211780548,0.9982890486717224,-0.3548901379108429,1.0800687074661255,-3.602142333984375,-0.14496752619743347,-0.569400429725647,0.1955752670764923,1580,1500,1272,1500,2000,1503,1000,1000,1328,1440,1512,1813,1823,1488,1490,2,12,240,242,3,88.92,-1.08,89.1,-0.8999999999999999,1,1,1,1,1,1,1,0,1,1,0,0,stabilized_mix,0.1467486470937729,0.019756708294153214,-0.004354310221970081,0.0002625894558150321,8.813341992208734e-05,-5.305721060722135e-05,0.0,0.12800000607967377,-0.0002625894558150321,0.12791186571121216,-0.002247711643576622,1.0948991775512695,-0.002247711643576622,1.0948991775512695,-0.0,-0.0,0.0,0.0,1.0,-0.002247711643576622,1.0948991775512695,0.0031919993925839663,-0.0,-0.0,-0.0,-0.002247711643576622,1.0948991775512695,0.0031919993925839663,0.13526079058647156,1.5306415557861328,13.401394844055176,0.010092695243656635,-0.11371655017137527,-0.012004588730633259,0.09246421605348587,-0.0068058352917432785,0.0021799285896122456,-0.01882839947938919,0.09460218995809555,0.0003894777037203312,0.031434621661901474,1.113838516175747e-05,13.489200592041016,6.688908576965332,6.800292491912842,1813.0,1823.0,0.0,0.0,-0.1732766181230545,0.012232438661158085,0.0014780290657654405,0.17487868666648865,-0.02216687798500061,3.77873657271266e-05,-0.006194001529365778,0.01885075494647026,-0.06286924332380295,-0.10734479129314423,0.020860152319073677,1.1138435183966067e-05,0.5474507808685303,0.30568116903305054,0.8622074723243713,2,0.00506297592073679,0,0,0,0,0,0.0,0.0,0,902554974,1,0
827477062,5,428,3,0,7712047,7712,4785,-28,-382,7212,420,31,-423,-1,24.78125,-0.028568174690008163,0.028678858652710915,0.9821774959564209,-0.11747245490550995,-0.3972659111022949,-9.249817848205566,-0.12445765733718872,-0.5677862763404846,0.16796578466892242,1580,1500,1272,1500,2000,1503,1000,1000,1328,1440,1503,1806,1830,1488,1490,6,16,240,242,3,88.92,-1.08,89.1,-0.8999999999999999,1,1,1,1,1,1,1,0,1,1,0,0,stabilized_mix,0.15479053556919098,-0.02195439115166664,0.03926064819097519,0.0005312390858307481,4.963028914062306e-05,3.461173764662817e-05,0.0,0.12800000607967377,-0.0005312390858307481,0.12795037031173706,-0.0046333144418895245,1.1159464120864868,-0.0046333144418895245,1.1159464120864868,-0.0,-0.0,0.0,0.0,1.0,-0.0046333144418895245,1.1159464120864868,0.0045304871164262295,-0.0,-0.0,-0.0,-0.0046333144418895245,1.1159464120864868,0.0045304871164262295,0.13096719980239868,1.5546220541000366,13.400091171264648,0.009773294441401958,-0.11549396812915802,-0.006765089929103851,0.09315929561853409,0.0025035024154931307,0.0007226482266560197,-0.004277165979146957,0.09393586963415146,0.0013532303273677826,0.08071988821029663,2.8725597076117992e-05,13.490606307983398,6.601675033569336,6.888930797576904,1806.0,1830.0,0.0,0.0,-0.1749681830406189,0.002696861047297716,0.0031275851652026176,0.17620772123336792,-0.012493167072534561,-0.0012780652614310384,-0.002050281036645174,-0.006933598313480616,-0.16143977642059326,-0.10660145431756973,0.004739226307719946,2.8725591619149782e-05,0.5579780340194702,0.30353274941444397,0.8622972965240479,2,0.004515775479376316,0,0,0,0,0,0.0,0.0,0,4222642257,1,0
827477062,5,428,4,0,7715062,7716,4788,-18,-872,8264,-357,-77,-448,-24,24.859375,0.0238430667668581,0.03295699879527092,0.9951823949813843,0.3139527440071106,0.3416217565536499,-12.19800853729248,-0.1043824553489685,-0.56486976146698,0.1335693895816803,1580,1500,1284,1500,2000,1503,1000,1000,1339,1442,1507,1803,1834,1488,1490,10,20,240,242,3,88.92,-1.08,89.1,-0.8999999999999999,1,1,1,1,1,1,1,0,1,1,0,0,stabilized_mix,0.17830856144428253,-0.058648254722356796,0.07443183660507202,0.0010169189190492034,-8.373542368644848e-05,0.00023636146215721965,0.0,0.12800000607967377,-0.0010169189190492034,0.128083735704422,-0.009072504937648773,1.1427068710327148,-0.009072504937648773,1.1427068710327148,-0.0,-0.0,0.0,0.0,1.0,-0.009072504937648773,1.1427068710327148,0.006555128376930952,-0.0,-0.0,-0.0,-0.009072504937648773,1.1427068710327148,0.006555128376930952,0.12335909903049469,1.5865159034729004,13.397875785827637,0.009207102470099926,-0.11786165833473206,-0.00877124723047018,0.09358832985162735,-0.0021511665545403957,-0.0019282600842416286,-0.01086848508566618,0.0915941670536995,0.00255389092490077,0.10644770413637161,3.8150581531226635e-05,13.492046356201172,6.555270195007324,6.936776161193848,1803.0,1834.0,0.0,0.0,-0.17616324126720428,0.006480864714831114,0.002423927653580904,0.17703482508659363,-0.016204487532377243,-0.0015088291838765144,0.005479509010910988,0.005962424445897341,-0.21289540827274323,-0.10396480560302734,0.012048576027154922,3.8150556065374985e-05,0.5713713765144348,0.2959936559200287,0.862389326095581,2,0.003982975147664547,0,0,0,0,0,0.0,0.0,0,1505906704,1,0
827477062,5,428,5,0,7719123,7720,4792,-16,-295,7359,1043,-75,-108,-29,24.875,0.017058731988072395,0.02410501055419445,0.9883178472518921,0.7074750661849976,1.7614455223083496,-6.934011459350586,-0.07686462998390198,-0.5276188254356384,0.09229913353919983,1580,1500,1284,1500,2000,1503,1000,1000,1339,1443,1515,1809,1828,1488,1490,14,24,240,242,3,88.92,-1.08,89.1,-0.8999999999999999,1,1,1,1,1,1,1,0,1,1,0,0,stabilized_mix,0.26310211420059204,-0.09765659272670746,0.08015654236078262,0.0019351140363141894,-0.00041730934754014015,0.000536226318217814,0.0,0.12800000607967377,-0.0019351140363141894,0.12841731309890747,-0.017594626173377037,1.1676080226898193,-0.017594626173377037,1.1676080226898193,-0.0,-0.0,0.0,0.0,1.0,-0.017594626173377037,1.1676080226898193,0.008525049313902855,-0.0,-0.0,-0.0,-0.017594626173377037,1.1676080226898193,0.008525049313902855,0.10190221667289734,1.614129662513733,13.396093368530273,0.007606714032590389,-0.11991103738546371,-0.012256256304681301,0.09388794004917145,-0.011091391555964947,-0.004344278015196323,-0.0232793390750885,0.0893579050898552,0.003994494676589966,0.06051066517829895,2.257677260786295e-05,13.493372917175293,6.633802890777588,6.859570503234863,1809.0,1828.0,0.0,0.0,-0.17724579572677612,0.013575213961303234,0.0010958441998809576,0.17761537432670593,-0.022648517042398453,-0.0014821538934484124,0.012347768992185593,0.03074302338063717,-0.1210213303565979,-0.10144167393445969,0.02581063099205494,2.2576805349672213e-05,0.5838702917098999,0.2887817621231079,0.8624741435050964,2,0.0034645749256014824,0,0,0,0,0,0.0,0.0,0,2411770733,1,0
827477062,5,428,6,0,7723145,7724,4796,-2,169,8228,3811,-38,105,-36,24.984375,-0.07105382531881332,-0.009551173076033592,0.9874008297920227,1.0721304416656494,1.1282408237457275,0.9946480989456177,-0.06954342126846313,-0.515007734298706,0.08236716687679291,1580,1500,1284,1500,2000,1503,1000,1000,1339,1444,1511,1819,1818,1488,1490,18,28,240,242,3,88.92,-1.08,89.1,-0.8999999999999999,1,1,1,1,1,1,1,0,1,1,0,0,stabilized_mix,0.23950502276420593,-0.08050554245710373,0.12226187437772751,0.002266509458422661,0.0004891970893368125,0.0009532808908261359,0.0,0.12800000607967377,-0.002266509458422661,0.12751081585884094,-0.021152036264538765,1.1899855136871338,-0.021152036264538765,1.1899855136871338,-0.0,-0.0,0.0,0.0,1.0,-0.021152036264538765,1.1899855136871338,0.008683442138135433,-0.0,-0.0,-0.0,-0.021152036264538765,1.1899855136871338,0.008683442138135433,0.09385576844215393,1.6430109739303589,13.396113395690918,0.00700607942417264,-0.12203587591648102,-0.00967246014624834,0.09447036683559418,-0.0071006473153829575,-0.006582928821444511,-0.016788683831691742,0.08787665516138077,0.0043411860242486,-0.008679942227900028,-1.5185214579105377e-06,13.496820449829102,6.756002902984619,6.740817546844482,1819.0,1818.0,0.0,0.0,-0.1785292774438858,0.009076222777366638,0.001870337757281959,0.17876219749450684,-0.017882099375128746,-0.0020222486928105354,0.018712205812335014,0.01969151757657528,0.017359884455800056,-0.09978975355625153,0.018622320145368576,-1.518564658908872e-06,0.5950866937637329,0.2840065658092499,0.862694501876831,2,0.002946174703538418,0,0,0,0,0,0.0,0.0,0,767984363,1,0
827477062,5,428,7,0,7727180,7728,4800,2,382,8964,-1744,-34,83,-22,25.015625,0.006364762783050537,-0.01720753312110901,1.0122150182724,0.9956461191177368,0.8188210129737854,2.6814396381378174,-0.07907211780548096,-0.5733636617660522,0.09139217436313629,1580,1500,1284,1500,2000,1503,1000,1000,1339,1444,1509,1821,1815,1488,1490,22,32,240,242,3,88.92,-1.08,89.1,-0.8999999999999999,1,1,1,1,1,1,1,0,1,1,0,0,stabilized_mix,0.12107332795858383,-0.039386339485645294,0.1305302530527115,0.0028327724430710077,0.00024260289501398802,0.0014902427792549133,0.0,0.12800000607967377,-0.0028327724430710077,0.12775740027427673,-0.026246370747685432,1.1837055683135986,-0.026246370747685432,1.1837055683135986,-0.0,-0.0,0.0,0.0,1.0,-0.026246370747685432,1.1837055683135986,0.010653362609446049,-0.0,-0.0,-0.0,-0.026246370747685432,1.1837055683135986,0.010653362609446049,0.10075370967388153,1.6366655826568604,13.393123626708984,0.0075226519256830215,-0.12159562110900879,-0.009068455547094345,0.0944080501794815,-0.005154411308467388,-0.0061155445873737335,-0.01426001638174057,0.08829610794782639,0.004026153590530157,-0.023399975150823593,-6.780843250453472e-06,13.493131637573242,6.780470371246338,6.7126617431640625,1821.0,1815.0,0.0,0.0,-0.17819131910800934,0.006943424232304096,0.0022266050800681114,0.17859405279159546,-0.0167599655687809,-0.0021169567480683327,0.017377302050590515,0.014291122555732727,0.046799950301647186,-0.10023938864469528,0.015813618898391724,-6.780837338737911e-06,0.5919982194900513,0.28536421060562134,0.8624587059020996,2,0.0024277744814753532,0,0,0,0,0,0.0,0.0,0,816117413,1,0
827477062,5,428,8,0,7731219,7732,4804,-12,1125,7855,896,51,79,-17,24.90625,0.029295101761817932,-0.038533855229616165,0.9964432120323181,0.8151203393936157,-0.0775483250617981,2.3185155391693115,-0.09285607933998108,-0.5416774153709412,0.09983228147029877,1580,1500,1299,1500,2000,1503,1000,1000,1351,1443,1503,1820,1816,1488,1490,26,36,240,242,3,88.92,-1.08,89.1,-0.8999999999999999,1,1,1,1,1,1,1,0,1,1,0,0,stabilized_mix,0.20757237076759338,0.010144207626581192,0.12506751716136932,0.003476247191429138,0.00015875496319495142,0.0019888535607606173,0.0,0.12800000607967377,-0.003476247191429138,0.12784124910831451,-0.03192080557346344,1.1739083528518677,-0.03192080557346344,1.1739083528518677,-0.0,-0.0,0.0,0.0,1.0,-0.03192080557346344,1.1739083528518677,0.010047327727079391,-0.0,-0.0,-0.0,-0.03192080557346344,1.1739083528518677,0.010047327727079391,0.08581192791461945,1.6265149116516113,13.393705368041992,0.006406797096133232,-0.12084455788135529,-0.005116061307489872,0.09437929093837738,0.0004877574974671006,-0.0050058066844940186,-0.0046558678150177,0.08934830874204636,0.0037315383087843657,-0.02023286558687687,-5.775480531156063e-06,13.492377281188965,6.775066375732422,6.717311382293701,1820.0,1816.0,0.0,0.0,-0.1778840273618698,0.00022390088997781277,0.003400853369385004,0.17853039503097534,-0.009456057101488113,-0.0024937172420322895,0.014226533472537994,-0.0013534736353904009,0.04046573117375374,-0.10142485797405243,0.005161403678357601,-5.775464614998782e-06,0.5871711373329163,0.28875523805618286,0.8624104857444763,2,0.0019273743964731693,0,0,0,0,0,0.0,0.0,0,614231542,1,0
827477062,5,428,9,0,7735223,7736,4808,-22,429,7823,2015,63,-40,3,24.828125,-0.025116268545389175,-0.028816048055887222,0.9897882342338562,0.21125063300132751,-1.3031322956085205,0.5923305749893188,-0.11868572235107422,-0.5428900718688965,0.10598328709602356,1580,1500,1306,1500,2000,1503,1000,1000,1357,1441,1495,1818,1817,1488,1490,30,40,240,242,3,88.92,-1.08,89.1,-0.8999999999999999,1,1,1,1,1,1,1,0,1,1,0,0,stabilized_mix,0.20106752216815948,0.06835809350013733,0.14745451509952545,0.00429343618452549,0.00033490333589725196,0.002545146271586418,0.0,0.12800000607967377,-0.00429343618452549,0.12766510248184204,-0.038194481283426285,1.1357109546661377,-0.038194481283426285,1.1357109546661377,-0.0,-0.0,0.0,0.0,1.0,-0.038194481283426285,1.1357109546661377,0.011848527006804943,-0.0,-0.0,-0.0,-0.038194481283426285,1.1357109546661377,0.011848527006804943,0.07757210731506348,1.5803523063659668,13.390695571899414,0.0057929209433496,-0.11747332662343979,-0.00045659858733415604,0.09370578080415726,0.008212781511247158,-0.0012978904414922,0.007752588018774986,0.09239231050014496,0.0035168277099728584,-0.00516905914992094,-5.782349035143852e-07,13.483851432800293,6.744816780090332,6.739034652709961,1818.0,1817.0,0.0,0.0,-0.17604410648345947,-0.008359803818166256,0.004882503766566515,0.17714816331863403,-0.0008443729020655155,-0.0031057046726346016,0.003687018994241953,-0.0227439496666193,0.01033811829984188,-0.1048021912574768,-0.00858902558684349,-5.782810035270813e-07,0.5681764483451843,0.2985590994358063,0.8618655204772949,2,0.0014533743960782886,0,0,0,0,0,0.0,0.0,0,1182430994,2,1
827477062,5,428,10,0,7739199,7740,4812,-8,1107,8400,-2715,35,22,18,24.9375,0.0806879848241806,-0.04686849191784859,1.0343966484069824,-0.19947466254234314,-1.0869241952896118,-0.03582233190536499,-0.14162054657936096,-0.5351935029029846,0.10448113083839417,1580,1500,1306,1500,2000,1503,1000,1000,1357,1440,1496,1817,1818,1488,1490,34,44,240,242,3,88.92,-1.08,89.1,-0.8999999999999999,1,1,1,1,1,1,1,0,1,1,0,0,stabilized_mix,0.2609049379825592,0.12574757635593414,0.08836334943771362,0.00509386183694005,0.0007081369985826313,0.0030321641825139523,0.0,0.12800000607967377,-0.00509386183694005,0.12729187309741974,-0.04433232173323631,1.1078323125839233,-0.04433232173323631,1.1078323125839233,-0.0,-0.0,0.0,0.0,1.0,-0.04433232173323631,1.1078323125839233,0.013617807999253273,-0.0,-0.0,-0.0,-0.04433232173323631,1.1078323125839233,0.013617807999253273,0.06725006550550461,1.5476107597351074,13.387826919555664,0.0050231823697686195,-0.11508608609437943,-0.0005500754341483116,0.09319525212049484,0.006853772327303886,0.0012259851209819317,0.0063048964366316795,0.09442722797393799,0.0035692628007382154,0.0003126088122371584,1.3586832210421562e-06,13.477148056030273,6.731780529022217,6.745367527008057,1817.0,1818.0,0.0,0.0,-0.17457567155361176,-0.008065007627010345,0.004773401189595461,0.17609819769859314,-0.0010136552155017853,-0.003036553505808115,-0.0034814896062016487,-0.01897040568292141,-0.0006252176244743168,-0.10705212503671646,-0.006979858968406916,1.3586550267064013e-06,0.5543594360351562,0.3051203489303589,0.8614370822906494,2,0.0009877743432298303,0,0,0,0,0,0.0,0.0,0,2192328369,2,1
827477062,5,428,11,0,7743208,7744,4815,-6,1055,8059,-174,32,54,22,24.953125,0.07579658925533295,-0.04977307841181755,1.030394196510315,-0.53437340259552,-1.0413877964019775,1.3913898468017578,-0.16499924659729004,-0.4743945598602295,0.10694299638271332,1580,1500,1315,1500,2000,1503,1000,1000,1365,1439,1496,1818,1816,1488,1490,38,48,240,242,3,88.92,-1.08,89.1,-0.8999999999999999,1,1,1,1,1,1,1,0,1,1,0,0,stabilized_mix,0.37168261408805847,0.16697154939174652,0.03959942236542702,0.0049775950610637665,0.0010410252725705504,0.0032740426249802113,0.0,0.12800000607967377,-0.0049775950610637665,0.12695898115634918,-0.042493194341659546,1.0838351249694824,-0.042493194341659546,1.0838351249694824,-0.0,-0.0,0.0,0.0,1.0,-0.042493194341659546,1.0838351249694824,0.015046164393424988,-0.0,-0.0,-0.0,-0.042493194341659546,1.0838351249694824,0.015046164393424988,0.05554130673408508,1.520261526107788,13.38537883758545,0.004149377346038818,-0.11309070885181427,2.9960536267026328e-05,0.0927230641245842,0.0065709445625543594,0.0032872699666768312,0.006611691787838936,0.09600674360990524,0.0034833275713026524,-0.012142166495323181,-3.030640073120594e-06,13.471549987792969,6.7509284019470215,6.720621585845947,1818.0,1816.0,0.0,0.0,-0.17319029569625854,-0.008087970316410065,0.004772992338985205,0.1751379668712616,5.589565262198448e-05,-0.00290088914334774,-0.009326575323939323,-0.018175644800066948,0.024284332990646362,-0.1087910607457161,-0.007315266877412796,-3.0305936888908036e-06,0.5423339009284973,0.31020551919937134,0.8610792756080627,2,0.0005329742562025785,0,0,0,0,0,0.0,0.0,0,1694187989,2,1
827477062,5,428,12,0,7747229,7748,4819,-30,171,7316,2077,-19,-13,14,24.765625,0.0015340782701969147,-0.028852339833974838,0.9959166646003723,-0.5480671525001526,-0.4636900722980499,1.1555547714233398,-0.18935319781303406,-0.444853812456131,0.1123608946800232,1580,1500,1315,1500,2000,1503,1000,1000,1365,1439,1498,1818,1816,1489,1490,2,52,241,242,3,89.00999999999999,-0.99,89.1,-0.8999999999999999,1,1,1,1,1,1,1,0,1,1,0,0,stabilized_mix,0.39689698815345764,0.1933811753988266,0.037335533648729324,0.0065274848602712154,0.001775717712007463,0.0034072536509484053,0.0,0.12800000607967377,-0.0065274848602712154,0.12622429430484772,-0.05571161210536957,1.0773152112960815,-0.05571161210536957,1.0773152112960815,-0.0,-0.0,0.0,0.0,1.0,-0.05571161210536957,1.0773152112960815,0.016733365133404732,-0.0,-0.0,-0.0,-0.05571161210536957,1.0773152112960815,0.016733365133404732,0.03067351132631302,1.5170719623565674,13.382620811462402,0.0022920367773622274,-0.11287917196750641,-0.00038948701694607735,0.09263918548822403,0.0029277438297867775,0.0033711595460772514,0.0025466454681009054,0.0960187315940857,0.0032942071557044983,-0.010084117762744427,-2.3765023797750473e-06,13.468369483947754,6.746067047119141,6.722302436828613,1818.0,1816.0,0.0,0.0,-0.1725565493106842,-0.0068282135762274265,0.00446226354688406,0.17493802309036255,-0.0007184057030826807,-0.0025613552425056696,-0.00956557597965002,-0.008092918433248997,0.020168235525488853,-0.10878077894449234,-0.0028158952482044697,-2.3764687284710817e-06,0.5393773913383484,0.3102494776248932,0.8608759641647339,2,8.897419320419431e-05,0,0,0,0,0,0.0,0.0,0,597880184,2,1
827477062,5,428,13,0,7751253,7752,4823,-32,509,7354,-283,-40,-33,27,24.75,-0.009039095602929592,-0.008464056067168713,1.009085774421692,-0.4956241846084595,0.4766162633895874,-0.9073835015296936,-0.1831362545490265,-0.4480316936969757,0.11151169240474701,1580,1500,1315,1500,2000,1503,1000,1000,1365,1439,1504,1815,1819,1489,1490,6,56,241,242,3,89.00999999999999,-0.99,89.1,-0.8999999999999999,1,1,1,1,1,1,1,0,1,1,0,0,stabilized_mix,0.34774523973464966,0.14662230014801025,0.0006941288011148572,0.006419247016310692,0.0019553902093321085,0.003468428971245885,0.0,0.12800000607967377,-0.006419247016310692,0.1260446161031723,-0.055074043571949005,1.0814019441604614,-0.055074043571949005,1.0814019441604614,-0.0,-0.0,0.0,0.0,1.0,-0.055074043571949005,1.0814019441604614,0.018206560984253883,-0.0,-0.0,-0.0,-0.055074043571949005,1.0814019441604614,0.018206560984253883,0.03226086497306824,1.5211970806121826,13.380744934082031,0.0024109871592372656,-0.11319919675588608,-0.0036827491130679846,0.09274224191904068,-0.003009236417710781,0.003049982711672783,-0.006697977893054485,0.09580061584711075,0.0033238499891012907,0.007918414659798145,3.934837877750397e-06,13.466974258422852,6.713813304901123,6.753161430358887,1815.0,1819.0,0.0,0.0,-0.1728348731994629,-0.0008527004392817616,0.0034259946551173925,0.1751149594783783,-0.0067900787107646465,-0.0020566307939589024,-0.008650274015963078,0.008318522945046425,-0.01583682931959629,-0.10852241516113281,0.007408395409584045,3.934792403015308e-06,0.541401743888855,0.3095446527004242,0.8607867956161499,2,0.0,0,0,0,0,0,0.0,0.0,0,3343311420,2,1
827477062,5,428,14,0,7755275,7756,4827,-20,-708,7266,1064,-95,57,-7,24.84375,-0.022989682853221893,0.03520733118057251,0.9825708866119385,0.11432104557752609,1.7584574222564697,0.5618193745613098,-0.15823078155517578,-0.4407612979412079,0.10911291837692261,1580,1500,1329,1500,2000,1503,1000,1000,1376,1441,1511,1817,1817,1489,1490,10,60,241,242,3,89.00999999999999,-0.99,89.1,-0.8999999999999999,1,1,1,1,1,1,1,0,1,1,0,0,stabilized_mix,0.29778042435646057,0.05385224148631096,0.030535010620951653,0.007702053524553776,0.002349530579522252,0.003508962457999587,0.0,0.12800000607967377,-0.007702053524553776,0.12565048038959503,-0.06866765022277832,1.1202367544174194,-0.06866765022277832,1.1202367544174194,-0.0,-0.0,0.0,0.0,1.0,-0.06866765022277832,1.1202367544174194,0.018206560984253883,-0.0,-0.0,-0.0,-0.06866765022277832,1.1202367544174194,0.018206560984253883,0.012019656598567963,1.5685001611709595,13.3814058303833,0.0008982354775071144,-0.11668242514133453,-0.006774676963686943,0.09351403266191483,-0.011091391555964947,-0.0007034734589979053,-0.01786726713180542,0.09282134473323822,0.003407582873478532,-0.004902798682451248,-5.23286871612072e-07,13.4730224609375,6.7391276359558105,6.7338948249816895,1817.0,1817.0,0.0,0.0,-0.17482367157936096,0.004936502315104008,0.0023310824763029814,0.17664577066898346,-0.012496109120547771,-0.0015043036546558142,0.001995278522372246,0.03069087117910385,0.009805597364902496,-0.10520459711551666,0.01977500505745411,-5.233255251368973e-07,0.5611696839332581,0.2999463379383087,0.8611733913421631,2,0.0,0,0,0,0,0,0.0,0.0,0,1253187374,2,1
827477062,5,428,15,0,7759292,7760,4831,-26,-565,8685,166,-43,126,-23,24.796875,-0.08191254734992981,0.06311874836683273,0.9930298328399658,0.667356014251709,1.3283045291900635,3.3285927772521973,-0.10539335012435913,-0.5132229924201965,0.11790676414966583,1579,1500,1329,1500,2000,1503,1000,1000,1376,1443,1509,1821,1814,1489,1490,14,64,241,242,3,89.00999999999999,-0.99,89.1,-0.8999999999999999,1,1,1,1,1,1,1,0,1,1,0,0,stabilized_mix,0.08047954738140106,-0.07899574935436249,0.08186185359954834,0.008368337526917458,0.0022740575950592756,0.0037542851641774178,0.0,0.12640000879764557,-0.008368337526917458,0.12412595003843307,-0.07837925851345062,1.1625845432281494,-0.07837925851345062,1.1625845432281494,-0.0,-0.0,0.0,0.0,1.0,-0.07837925851345062,1.1625845432281494,0.018206560984253883,-0.0,-0.0,-0.0,-0.07837925851345062,1.1625845432281494,0.018206560984253883,0.016027435660362244,1.6140899658203125,13.382829666137695,0.0011976113310083747,-0.12002917379140854,-0.005578652024269104,0.09436251223087311,-0.00837337039411068,-0.004102196544408798,-0.013981983065605164,0.09030226618051529,0.003100619651377201,-0.02904745191335678,-9.081442840397358e-06,13.479823112487793,6.785318851470947,6.694504737854004,1821.0,1814.0,0.0,0.0,-0.17745943367481232,0.001495516044087708,0.0028873232658952475,0.17833182215690613,-0.010298220440745354,-0.0017359268385916948,0.011647559702396393,0.023183288052678108,0.05809490382671356,-0.10240828990936279,0.015486521646380424,-9.081390999199357e-06,0.5826117992401123,0.2918265759944916,0.8616080284118652,2,0.0,0,0,0,0,0,0.0,0.0,0,3764342083,2,1
827477062,5,428,16,0,7763315,7764,4835,-32,189,7503,-18,-58,131,0,24.75,-0.031554047018289566,0.02866637520492077,0.9820346832275391,0.2527385652065277,1.4226137399673462,4.308508396148682,-0.057069018483161926,-0.5665647387504578,0.13436181843280792,1579,1500,1329,1500,2000,1503,1000,1000,1376,1441,1511,1823,1812,1489,1490,18,68,241,242,3,89.00999999999999,-0.99,89.1,-0.8999999999999999,1,1,1,1,1,1,1,0,1,1,0,0,stabilized_mix,-0.01950894109904766,-0.1592595875263214,0.10529128462076187,0.006931865122169256,0.0013788689393550158,0.0041151149198412895,0.0,0.12640000879764557,-0.006931865122169256,0.12502114474773407,-0.06372152268886566,1.1492632627487183,-0.06372152268886566,1.1492632627487183,-0.0,-0.0,0.0,0.0,1.0,-0.06372152268886566,1.1492632627487183,0.018944377079606056,-0.0,-0.0,-0.0,-0.06372152268886566,1.1492632627487183,0.018944377079606056,0.048929303884506226,1.584573745727539,13.38297176361084,0.003656070213764906,-0.11785276234149933,-0.007908382453024387,0.09400298446416855,-0.008970185182988644,-0.0015543526969850063,-0.01689654216170311,0.09252414107322693,0.002526230178773403,-0.037598829716444016,-1.2275413610041142e-05,13.476542472839355,6.799648761749268,6.676894664764404,1823.0,1812.0,0.0,0.0,-0.17757125198841095,0.004823207855224609,0.0023701339960098267,0.17761015892028809,-0.014593230560421944,-0.0013168342411518097,0.004411119967699051,0.02482929266989231,0.07519765943288803,-0.10489622503519058,0.018704457208514214,-1.2275409062567633e-05,0.5755141973495483,0.29898902773857117,0.8613983392715454,2,0.0,0,0,0,0,0,0.0,0.0,0,3551321271,2,1
827477062,5,428,17,0,7767338,7768,4839,-4,629,8021,-708,27,87,48,24.96875,0.009773258119821548,-0.02513866126537323,0.9707092046737671,-0.7594993114471436,-0.16484150290489197,4.071503162384033,-0.05479319393634796,-0.5700815320014954,0.15297751128673553,1579,1500,1332,1500,2000,1503,1000,1000,1379,1438,1501,1822,1812,1489,1490,22,72,241,242,3,89.00999999999999,-0.99,89.1,-0.8999999999999999,1,1,1,1,1,1,1,0,1,1,0,0,stabilized_mix,0.016805686056613922,-0.10758775472640991,0.16610077023506165,0.006856802850961685,0.000801990507170558,0.004661461338400841,0.0,0.12640000879764557,-0.006856802850961685,0.1255980134010315,-0.05989319831132889,1.0970808267593384,-0.05989319831132889,1.0970808267593384,-0.0,-0.0,0.0,0.0,1.0,-0.05989319831132889,1.0970808267593384,0.018944377079606056,-0.0,-0.0,-0.0,-0.05989319831132889,1.0970808267593384,0.018944377079606056,0.055303946137428284,1.5127218961715698,13.383044242858887,0.004132365342229605,-0.11255404353141785,-0.0028893945273011923,0.09306102991104126,0.0010414281859993935,0.004672645591199398,-0.0018036242108792067,0.09774685651063919,0.0018764198757708073,-0.03553056716918945,-1.1778902262449265e-05,13.468379974365234,6.793084621429443,6.675295352935791,1822.0,1812.0,0.0,0.0,-0.17570564150810242,-0.004465448670089245,0.004031603690236807,0.17573341727256775,-0.005323747172951698,-0.0018278358038514853,-0.013255763798952103,-0.002877027029171586,0.0710611343383789,-0.11073200404644012,0.001995726954191923,-1.1778950465668458e-05,0.5493572354316711,0.31581422686576843,0.8608766198158264,2,0.0,0,0,0,0,0,0.0,0.0,0,3689183592,3,2
827477062,5,428,18,0,7771362,7772,4843,-20,305,8833,-2054,11,-15,62,24.84375,0.08184832334518433,-0.045555125921964645,1.0009685754776,-1.5510298013687134,-0.956536591053009,0.9752734303474426,-0.07916063070297241,-0.5455688238143921,0.16249686479568481,1579,1500,1332,1500,2000,1503,1000,1000,1379,1435,1496,1818,1816,1489,1490,26,76,241,242,3,89.00999999999999,-0.99,89.1,-0.8999999999999999,1,1,1,1,1,1,1,0,1,1,0,0,stabilized_mix,0.1343713104724884,0.0004101693630218506,0.18207329511642456,0.0070479814894497395,0.0005794623866677284,0.005379074718803167,0.0,0.12640000879764557,-0.0070479814894497395,0.12582054734230042,-0.05872172489762306,1.04830002784729,-0.05872172489762306,1.04830002784729,-0.0,-0.0,0.0,0.0,1.0,-0.05872172489762306,1.04830002784729,0.018944377079606056,-0.0,-0.0,-0.0,-0.05872172489762306,1.04830002784729,0.018944377079606056,0.05123908817768097,1.4517388343811035,13.382498741149902,0.0038287946954369545,-0.10805706679821014,4.434159927768633e-05,0.09208791702985764,0.006043639034032822,0.00954782497137785,0.006108354777097702,0.1016680970788002,0.0015441318973898888,-0.008510866202414036,-2.4383189156651497e-06,13.461108207702637,6.742745876312256,6.718362808227539,1818.0,1816.0,0.0,0.0,-0.17333123087882996,-0.009427644312381744,0.004881626460701227,0.1738061010837555,8.134637027978897e-05,-0.002038173610344529,-0.027070576325058937,-0.01669471338391304,0.01702173240482807,-0.11509750783443451,-0.006750032305717468,-2.4383568870689487e-06,0.5249716639518738,0.32844221591949463,0.8604118227958679,2,0.0,0,0,0,0,0,0.0,0.0,0,959952175,3,2
827477062,5,428,19,0,7775383,7776,4847,-12,400,7516,-1054,-1,-17,72,24.90625,0.12014055997133255,-0.04190444573760033,0.97202068567276,-1.8361800909042358,-0.5287199020385742,-0.29442912340164185,-0.10643711686134338,-0.4473647177219391,0.16281643509864807,1579,1500,1332,1500,2000,1503,1000,1000,1379,1434,1497,1816,1817,1489,1490,30,80,241,242,3,89.00999999999999,-0.99,89.1,-0.8999999999999999,1,1,1,1,1,1,1,0,1,1,0,0,stabilized_mix,0.3796261250972748,0.085677370429039,0.19511008262634277,0.008069785311818123,0.0007677318062633276,0.006095609162002802,0.0,0.12640000879764557,-0.008069785311818123,0.12563227117061615,-0.06594046950340271,1.0265765190124512,-0.06594046950340271,1.0265765190124512,-0.0,-0.0,0.0,0.0,1.0,-0.06594046950340271,1.0265765190124512,0.018944377079606056,-0.0,-0.0,-0.0,-0.06594046950340271,1.0265765190124512,0.018944377079606056,0.0183541402220726,1.4284424781799316,13.382006645202637,0.001371552818454802,-0.10634075105190277,0.0006147902458906174,0.09167805314064026,0.0033423975110054016,0.011307107284665108,0.003951195627450943,0.10303907841444016,0.0015329765155911446,0.0025693788193166256,1.435866579413414e-06,13.45804214477539,6.721841812133789,6.736200332641602,1816.0,1817.0,0.0,0.0,-0.17202529311180115,-0.008791515603661537,0.004702646750956774,0.17299263179302216,0.0011338116601109505,-0.0017638987628743052,-0.03204738721251488,-0.009227902628481388,-0.005138757638633251,-0.11661693453788757,-0.0043631065636873245,1.4358242879097816e-06,0.5143460631370544,0.33285385370254517,0.8602158427238464,2,0.0,0,0,0,0,0,0.0,0.0,0,2915668632,3,2
827477062,5,428,20,0,7779405,7780,4851,-32,60,7524,1121,-71,-40,56,24.75,0.03143038973212242,-0.020191779360175133,0.9810857176780701,-1.646801471710205,0.7491734623908997,-0.2721332311630249,-0.12145838141441345,-0.3805014491081238,0.1629432737827301,1579,1500,1332,1500,2000,1503,1000,1000,1379,1435,1504,1816,1817,1489,1490,34,84,241,242,3,89.00999999999999,-0.99,89.1,-0.8999999999999999,1,1,1,1,1,1,1,0,1,1,0,0,stabilized_mix,0.46723806858062744,0.11978369206190109,0.20585490763187408,0.009797786362469196,0.0011968421749770641,0.006899763830006123,0.0,0.12640000879764557,-0.009797786362469196,0.12520316243171692,-0.08100754767656326,1.035172700881958,-0.08100754767656326,1.035172700881958,-0.0,-0.0,0.0,0.0,1.0,-0.08100754767656326,1.035172700881958,0.018944377079606056,-0.0,-0.0,-0.0,-0.08100754767656326,1.035172700881958,0.018944377079606056,-0.0178251713514328,1.443760633468628,13.381755828857422,-0.0013320494908839464,-0.10747440159320831,-0.001484844135120511,0.09196088463068008,-0.0047349631786346436,0.010139844380319118,-0.0062258001416921616,0.10214506834745407,0.0015285490080714226,0.0023748103994876146,1.36613380163908e-06,13.459425926208496,6.7228827476501465,6.736544132232666,1816.0,1817.0,0.0,0.0,-0.1723104864358902,-0.003810424357652664,0.003738413332030177,0.17354214191436768,-0.0027338750660419464,-0.0011275428114458919,-0.02874210849404335,0.013075543567538261,-0.004749620798975229,-0.1156189888715744,0.00687745725736022,1.3661757520821993e-06,0.5191687345504761,0.329971581697464,0.8603042960166931,2,0.0,0,0,0,0,0,0.0,0.0,0,3782218014,3,2
827477062,5,428,21,0,7783425,7784,4855,-8,-550,7385,-73,-197,-145,-1,24.9375,-0.012883027084171772,0.025907330214977264,0.9962083697319031,-0.48817989230155945,4.4958648681640625,-2.0197739601135254,-0.10908162593841553,-0.3811068832874298,0.16012001037597656,1580,1500,1334,1500,2000,1503,1000,1000,1381,1439,1527,1814,1820,1489,1490,3,88,242,242,3,89.00999999999999,-0.99,89.1,-0.8999999999999999,1,1,1,1,1,1,1,0,1,1,0,0,stabilized_mix,0.3641306459903717,0.07051056623458862,0.17444513738155365,0.009746956638991833,0.0013794858241453767,0.007650104817003012,0.0,0.12800000607967377,-0.009746956638991833,0.12662051618099213,-0.08459480106830597,1.098952054977417,-0.08459480106830597,1.098952054977417,-0.0,-0.0,0.0,0.0,1.0,-0.08459480106830597,1.098952054977417,0.01809399016201496,-0.0,-0.0,-0.0,-0.08459480106830597,1.098952054977417,0.01809399016201496,-0.02240573614835739,1.528066635131836,13.383097648620605,-0.0016741801518946886,-0.11368636041879654,-0.013902888633310795,0.09301309287548065,-0.02837742120027542,0.0030044426675885916,-0.04230068624019623,0.09590607136487961,0.0016270997002720833,0.017625853419303894,6.738584488630295e-06,13.47006893157959,6.70134162902832,6.7687273025512695,1814.0,1820.0,0.0,0.0,-0.1747240424156189,0.01891695335507393,-0.0002532211656216532,0.17566339671611786,-0.025633033365011215,0.0008265434298664331,-0.008520346134901047,0.07846764475107193,-0.03525170683860779,-0.1086660847067833,0.04678209125995636,6.738533102179645e-06,0.551101565361023,0.3098832368850708,0.8609845638275146,2,0.0,0,0,0,0,0,0.0,0.0,0,2104738817,3,2
827477062,5,428,22,0,7787447,7788,4859,-30,-721,8084,-1391,-77,-135,-31,24.765625,-0.03642360121011734,0.08331740647554398,0.9968531727790833,0.6262857913970947,3.1222710609436035,-2.9915988445281982,-0.04862616956233978,-0.42131516337394714,0.1492910087108612,1580,1500,1334,1500,2000,1503,1000,1000,1381,1442,1518,1813,1822,1489,1490,7,92,242,242,3,89.00999999999999,-0.99,89.1,-0.8999999999999999,1,1,1,1,1,1,1,0,1,1,0,0,stabilized_mix,0.1799626648426056,-0.09342259168624878,0.17126967012882233,0.010687680914998055,0.0013196583604440093,0.008344731293618679,0.0,0.12800000607967377,-0.010687680914998055,0.12668034434318542,-0.09925364702939987,1.176446795463562,-0.09925364702939987,1.176446795463562,-0.0,-0.0,0.0,0.0,1.0,-0.09925364702939987,1.176446795463562,0.01809399016201496,-0.0,-0.0,-0.0,-0.09925364702939987,1.176446795463562,0.01809399016201496,-0.033057890832424164,1.6199108362197876,13.384770393371582,-0.0024698087945580482,-0.1204402893781662,-0.008565117605030537,0.09470046311616898,-0.01967688277363777,-0.0038505280390381813,-0.028219230473041534,0.09070733189582825,0.0020051030442118645,0.02610662393271923,9.83907375484705e-06,13.482481002807617,6.692045211791992,6.790436267852783,1813.0,1822.0,0.0,0.0,-0.1791399121284485,0.008488769643008709,0.001488612382672727,0.179006427526474,-0.01581372320652008,-0.00029658322455361485,0.010930748656392097,0.05449391156435013,-0.05221324786543846,-0.10288744419813156,0.031256891787052155,9.839103768172208e-06,0.5903131365776062,0.2931341528892517,0.8617779612541199,2,0.0,0,0,0,0,0,0.0,0.0,0,663689472,3,2
827477062,5,428,23,0,7791471,7792,4863,-28,802,8341,-1715,-65,-63,6,24.78125,-0.021155022084712982,0.020940009504556656,1.0188902616500854,0.24443913996219635,1.2963300943374634,-2.054328441619873,-0.0038124173879623413,-0.45884594321250916,0.13831539452075958,1580,1500,1334,1500,2000,1503,1000,1000,1381,1441,1508,1814,1821,1489,1490,11,96,242,242,3,89.00999999999999,-0.99,89.1,-0.8999999999999999,1,1,1,1,1,1,1,0,1,1,0,0,stabilized_mix,0.07295311242341995,-0.16236081719398499,0.11982321739196777,0.009519480168819427,0.000614234886597842,0.00891376007348299,0.0,0.12800000607967377,-0.009519480168819427,0.12738576531410217,-0.08708032220602036,1.1652729511260986,-0.08708032220602036,1.1652729511260986,-0.0,-0.0,0.0,0.0,1.0,-0.08708032220602036,1.1652729511260986,0.017541224136948586,-0.0,-0.0,-0.0,-0.08708032220602036,1.1652729511260986,0.017541224136948586,-0.007988080382347107,1.5941015481948853,13.386678695678711,-0.0005967185716144741,-0.11852303892374039,-0.003955989144742489,0.09445837885141373,-0.008172035217285156,-0.0015016221441328526,-0.012122033163905144,0.09291482716798782,0.0023882240056991577,0.017927397042512894,7.110415026545525e-06,13.481260299682617,6.705078125,6.776182174682617,1814.0,1821.0,0.0,0.0,-0.17943602800369263,-0.0005774871096946299,0.003192540258169174,0.1785343885421753,-0.007301720324903727,-0.001435078214854002,0.004266267642378807,0.022625228390097618,-0.03585479408502579,-0.10537304729223251,0.013423376716673374,7.1104673224908765e-06,0.5842610597610474,0.3002430200576782,0.8616999387741089,2,0.0,0,0,0,0,0,0.0,0.0,0,648070555,3,2
827477062,5,428,24,0,7795494,7796,4867,-34,810,7785,-55,-95,-31,6,24.734375,0.024153264239430428,-0.10063152015209198,1.003029465675354,-0.19173374772071838,1.392886757850647,-1.8811246156692505,-0.06078508496284485,-0.43001532554626465,0.1286071091890335,1580,1500,1334,1500,2000,1503,1000,1000,1381,1440,1508,1814,1820,1489,1490,15,100,242,242,3,89.00999999999999,-0.99,89.1,-0.8999999999999999,1,1,1,1,1,1,1,0,1,1,0,0,stabilized_mix,0.15365684032440186,0.0406334325671196,0.08333536237478256,0.00990644283592701,0.0003447775379754603,0.009274953976273537,0.0,0.12800000607967377,-0.00990644283592701,0.12765522301197052,-0.08760672062635422,1.128907322883606,-0.08760672062635422,1.128907322883606,-0.0,-0.0,0.0,0.0,1.0,-0.08760672062635422,1.128907322883606,0.017541224136948586,-0.0,-0.0,-0.0,-0.08760672062635422,1.128907322883606,0.017541224136948586,-0.01582525670528412,1.5576826333999634,13.38514232635498,-0.0011822996893897653,-0.11585281044244766,-0.003812178736552596,0.09378967434167862,-0.008785627782344818,0.0011780483182519674,-0.012601402588188648,0.09494014829397202,0.0027271071448922157,0.016415908932685852,6.700051017105579e-06,13.475483894348145,6.704241752624512,6.771242141723633,1814.0,1820.0,0.0,0.0,-0.17708389461040497,-0.00034091435372829437,0.0031334038358181715,0.17719829082489014,-0.007030375301837921,-0.0015090466476976871,-0.0033463852014392614,0.024310460314154625,-0.032831817865371704,-0.10761711001396179,0.01394797395914793,6.700055109831737e-06,0.5661507248878479,0.3067685663700104,0.8613306879997253,2,0.0,0,0,0,0,0,0.0,0.0,0,3392021273,3,2
827477062,5,428,25,0,7799515,7800,4871,-26,-650,8381,1641,-73,41,47,24.796875,-0.025374799966812134,-0.033677779138088226,0.9950322508811951,-0.7777462601661682,1.3851524591445923,-0.5363403558731079,-0.11987021565437317,-0.4085644483566284,0.12277044355869293,1580,1500,1334,1500,2000,1503,1000,1000,1381,1438,1508,1816,1818,1489,1490,19,104,242,242,3,89.00999999999999,-0.99,89.1,-0.8999999999999999,1,1,1,1,1,1,1,0,1,1,0,0,stabilized_mix,0.18135714530944824,0.16893820464611053,0.09769408404827118,0.010555769316852093,0.0008641875465400517,0.009622246958315372,0.0,0.12800000607967377,-0.010555769316852093,0.12713581323623657,-0.08999545127153397,1.08392333984375,-0.08999545127153397,1.08392333984375,-0.0,-0.0,0.0,0.0,1.0,-0.08999545127153397,1.08392333984375,0.017541224136948586,-0.0,-0.0,-0.0,-0.08999545127153397,1.08392333984375,0.017541224136948586,-0.02439139038324356,1.5099869966506958,13.383675575256348,-0.0018224712694063783,-0.11234776675701141,-0.0032585079316049814,0.09296036511659622,-0.008744881488382816,0.004785297438502312,-0.012009382247924805,0.09775883704423904,0.002930845133960247,0.004680452402681112,2.6639318093657494e-06,13.468608856201172,6.720984935760498,6.747624397277832,1816.0,1818.0,0.0,0.0,-0.1743752509355545,-0.0009853971423581243,0.0032134377397596836,0.17554691433906555,-0.006006997544318438,-0.0015892150113359094,-0.013574233278632164,0.02417547069489956,-0.009360904805362225,-0.11074638366699219,0.013280823826789856,2.663954091985943e-06,0.5438264608383179,0.3158498704433441,0.8608912825584412,2,0.0,0,0,0,0,0,0.0,0.0,0,3137798639,4,3
827477062,5,428,26,0,7803553,7804,4875,-12,663,8200,1246,24,174,-25,24.90625,-0.011540473438799381,-0.09068182855844498,1.0045934915542603,-0.13759279251098633,0.1416863203048706,3.0164899826049805,-0.18024200201034546,-0.40988853573799133,0.1283055692911148,1579,1500,1339,1500,2000,1503,1000,1000,1385,1440,1500,1821,1814,1489,1490,23,108,242,242,3,89.00999999999999,-0.99,89.1,-0.8999999999999999,1,1,1,1,1,1,1,0,1,1,0,0,stabilized_mix,0.1658206284046173,0.2970549166202545,0.09284982085227966,0.009739140048623085,0.001641766051761806,0.009996282868087292,0.0,0.12640000879764557,-0.009739140048623085,0.12475824356079102,-0.0861244797706604,1.1032533645629883,-0.0861244797706604,1.1032533645629883,-0.0,-0.0,0.0,0.0,1.0,-0.0861244797706604,1.1032533645629883,0.014521896839141846,-0.0,-0.0,-0.0,-0.0861244797706604,1.1032533645629883,0.014521896839141846,-0.018558703362941742,1.5505249500274658,13.386083602905273,-0.001386416726745665,-0.11531710624694824,0.0006004092283546925,0.0932072326540947,-0.0008928239694796503,0.0008472839836031199,-0.0002888196031562984,0.09406290203332901,0.00273763295263052,-0.026323840022087097,-8.255126886069775e-06,13.47559642791748,6.779073715209961,6.6965227127075195,1821.0,1814.0,0.0,0.0,-0.17389346659183502,-0.008073974400758743,0.004504789132624865,0.17609868943691254,0.001105541130527854,-0.00217013293877244,-0.002401447156444192,0.0024728928692638874,0.052647680044174194,-0.10662639141082764,0.00031942868372425437,-8.255171451310162e-06,0.5533049702644348,0.303941935300827,0.8613379001617432,2,0.0,0,0,0,0,0,0.0,0.0,0,406001668,4,3
827477062,5,428,27,0,7807559,7808,4879,-12,-2694,8669,857,-24,12,-62,24.90625,-0.0034715142101049423,0.0929485559463501,0.9989181756973267,1.614662528038025,0.8161982297897339,3.142463207244873,-0.17646023631095886,-0.41537564992904663,0.1459336131811142,1579,1500,1339,1500,2000,1503,1000,1000,1385,1446,1504,1822,1814,1489,1489,27,2,242,243,3,89.00999999999999,-0.99,89.00999999999999,-0.99,1,1,1,1,1,1,1,0,1,1,0,0,stabilized_mix,0.1496339589357376,0.18684543669223785,0.11008100211620331,0.010219434276223183,0.002719014184549451,0.010394444689154625,0.0,0.12640000879764557,-0.010219434276223183,0.12368099391460419,-0.09906499832868576,1.1989370584487915,-0.09906499832868576,1.1989370584487915,-0.0,-0.0,0.0,0.0,1.0,-0.09906499832868576,1.1989370584487915,0.014521896839141846,-0.0,-0.0,-0.0,-0.09906499832868576,1.1989370584487915,0.014521896839141846,-0.03416822850704193,1.6805204153060913,13.385906219482422,-0.0025525470264256,-0.12489020824432373,-0.0007657913374714553,0.09507197886705399,-0.005137632600963116,-0.009919334203004837,-0.00597413070499897,0.08514904230833054,0.0021222983486950397,-0.027423163875937462,-8.855247870087624e-06,13.491026878356934,6.789790153503418,6.701237678527832,1822.0,1814.0,0.0,0.0,-0.17773427069187164,-0.005689107812941074,0.004085106775164604,0.17982041835784912,-0.0014146741013973951,-0.0016614848282188177,0.028181176632642746,0.014245346188545227,0.054846327751874924,-0.096659354865551,0.0066252294927835464,-8.85530243976973e-06,0.6015114188194275,0.2752154469490051,0.8623241782188416,2,0.0,0,0,0,0,0,0.0,0.0,0,1285520189,4,3
827477062,5,428,28,0,7811581,7812,4883,-12,391,9550,-137,56,55,-54,24.90625,-0.025428034365177155,0.08717505633831024,1.021304726600647,1.5480339527130127,-0.5299043655395508,1.6667981147766113,-0.07833373546600342,-0.45178353786468506,0.1529874950647354,1579,1500,1339,1500,2000,1503,1000,1000,1385,1445,1496,1820,1816,1489,1489,31,6,242,243,3,89.00999999999999,-0.99,89.00999999999999,-0.99,1,1,1,1,1,1,1,0,1,1,0,0,stabilized_mix,0.056956566870212555,-0.09131510555744171,0.11114052683115005,0.009197899140417576,0.0024188777897506952,0.010849814862012863,0.0,0.12640000879764557,-0.009197899140417576,0.12398113310337067,-0.09038478881120682,1.218322515487671,-0.09038478881120682,1.218322515487671,-0.0,-0.0,0.0,0.0,1.0,-0.09038478881120682,1.218322515487671,0.008569312281906605,-0.0,-0.0,-0.0,-0.09038478881120682,1.218322515487671,0.008569312281906605,-0.01345689594745636,1.6840883493423462,13.396787643432617,-0.0010044864611700177,-0.125052347779274,0.0025178834330290556,0.09528050571680069,0.0033328100107610226,-0.009502285160124302,0.005815939977765083,0.08572908490896225,0.0018760710954666138,-0.014545557089149952,-4.434376023709774e-06,13.502232551574707,6.773288249969482,6.728944301605225,1820.0,1816.0,0.0,0.0,-0.18001769483089447,-0.012340319342911243,0.005355913657695055,0.1803639531135559,0.004657783545553684,-0.002268135081976652,0.027018290013074875,-0.009248576126992702,0.029091114178299904,-0.09739743918180466,-0.006454290356487036,-4.434320089785615e-06,0.6108353137969971,0.2770867943763733,0.8630404472351074,2,0.0,0,0,0,0,0,0.0,0.0,0,993285610,4,3
827477062,5,428,29,0,7815601,7816,4887,-32,4025,8569,-3018,28,220,20,24.75,0.11442899703979492,-0.08153410255908966,0.9964401125907898,0.33059900999069214,-1.4153648614883423,5.590357780456543,-0.06563416123390198,-0.4331999123096466,0.16971874237060547,1579,1500,1339,1500,2000,1503,1000,1000,1385,1442,1491,1825,1811,1489,1489,35,10,242,243,3,89.00999999999999,-0.99,89.00999999999999,-0.99,1,1,1,1,1,1,1,0,1,1,0,0,stabilized_mix,0.16001388430595398,-0.07956491410732269,0.0996607169508934,0.009384209290146828,0.0019027477828785777,0.011216648854315281,0.0,0.12640000879764557,-0.009384209290146828,0.12449726462364197,-0.08700180798768997,1.1542249917984009,-0.08700180798768997,1.1542249917984009,-0.0,-0.0,0.0,0.0,1.0,-0.08700180798768997,1.1542249917984009,0.008569312281906605,-0.0,-0.0,-0.0,-0.08700180798768997,1.1542249917984009,0.008569312281906605,-0.012951567769050598,1.5935189723968506,13.39721965789795,-0.0009667351841926575,-0.11838773638010025,0.005506746470928192,0.09393107891082764,0.00891505740582943,-0.0020313241984695196,0.014394239522516727,0.09178350865840912,0.0012920405715703964,-0.048785075545310974,-1.662259455770254e-05,13.491662979125977,6.828944683074951,6.662718772888184,1825.0,1811.0,0.0,0.0,-0.17752547562122345,-0.017523443326354027,0.006238520611077547,0.17767655849456787,0.010171608999371529,-0.0023763710632920265,0.005770041141659021,-0.024702776223421097,0.09757015109062195,-0.10417584329843521,-0.01595556177198887,-1.6622561815893278e-05,0.5787495970726013,0.29660293459892273,0.8623648285865784,2,0.0,0,0,0,0,0,0.0,0.0,0,2922260484,4,3
827477062,5,428,30,0,7819627,7820,4891,-16,1895,8175,385,-89,105,4,24.875,0.07090745866298676,-0.163515105843544,1.015740990638733,-0.14312586188316345,1.6002371311187744,4.898024082183838,-0.19341793656349182,-0.3413049280643463,0.19236741960048676,1579,1500,1339,1500,2000,1503,1000,1000,1385,1440,1508,1824,1812,1489,1489,39,14,242,243,3,89.00999999999999,-0.99,89.00999999999999,-0.99,1,1,1,1,1,1,1,0,1,1,0,0,stabilized_mix,0.36655575037002563,0.2541591227054596,0.05689040943980217,0.010485286824405193,0.002382872626185417,0.011485339142382145,0.0,0.12640000879764557,-0.010485286824405193,0.124017134308815,-0.09325191378593445,1.1029584407806396,-0.09325191378593445,1.1029584407806396,-0.0,-0.0,0.0,0.0,1.0,-0.09325191378593445,1.1029584407806396,0.008569312281906605,-0.0,-0.0,-0.0,-0.09325191378593445,1.1029584407806396,0.008569312281906605,-0.04259701073169708,1.55338716506958,13.393878936767578,-0.003180323401466012,-0.11546096950769424,-0.0028126954566687346,0.09331748634576797,-0.01008711289614439,0.0008784429519437253,-0.012889022938907146,0.09430738538503647,0.0005014524795114994,-0.042743321508169174,-1.4784629456698895e-05,13.483724594116211,6.8157854080200195,6.667939186096191,1824.0,1812.0,0.0,0.0,-0.17396768927574158,-0.000742117001209408,0.0031703466083854437,0.17641475796699524,-0.005191259551793337,-0.00025682878913357854,-0.0024980176240205765,0.027929406613111496,0.08548664301633835,-0.10696899145841599,0.014275702647864819,-1.478465310356114e-05,0.5534467101097107,0.3047347068786621,0.8618574142456055,2,0.0,0,0,0,0,0,0.0,0.0,0,1225050148,4,3
827477062,5,428,31,0,7823649,7824,4895,-42,928,7239,1768,-177,-8,-30,24.671875,-0.06028522551059723,-0.10506848245859146,1.013960838317871,0.4164106845855713,3.807292938232422,1.593124270439148,-0.2970377206802368,-0.35379302501678467,0.20356707274913788,1579,1500,1339,1500,2000,1503,1000,1000,1385,1442,1522,1820,1816,1489,1489,43,18,242,243,3,89.00999999999999,-0.99,89.00999999999999,-0.99,1,1,1,1,1,1,1,0,1,1,0,0,stabilized_mix,0.2527099847793579,0.4461917579174042,0.006271807476878166,0.01031267736107111,0.003559267381206155,0.01156336348503828,0.0,0.12640000879764557,-0.01031267736107111,0.12284073978662491,-0.09309357404708862,1.1088957786560059,-0.09309357404708862,1.1088957786560059,-0.0,-0.0,0.0,0.0,1.0,-0.09309357404708862,1.1088957786560059,0.0073601542972028255,-0.0,-0.0,-0.0,-0.09309357404708862,1.1088957786560059,0.0073601542972028255,-0.03912627696990967,1.5857555866241455,13.392664909362793,-0.0029214622918516397,-0.11785555630922318,-0.01048259250819683,0.09338220953941345,-0.02398880571126938,-0.0025586297269910574,-0.034486979246139526,0.09089668095111847,0.00011051120236515999,-0.013902631588280201,-4.827277734875679e-06,13.486274719238281,6.767273426055908,6.719000816345215,1820.0,1816.0,0.0,0.0,-0.1723451316356659,0.013099205680191517,0.0007815301651135087,0.17657217383384705,-0.019360385835170746,0.0011480690445750952,0.007267737295478582,0.06644979864358902,0.027805263176560402,-0.1031297966837883,0.03820639103651047,-4.827241809834959e-06,0.5563982725143433,0.29374197125434875,0.8620204329490662,2,0.0,0,0,0,0,0,0.0,0.0,0,3043922827,4,3
827477062,5,428,32,0,7827670,7828,4899,-16,-3146,7600,1761,-151,79,-32,24.875,-0.22032015025615692,0.13988064229488373,0.9993764758110046,1.2839471101760864,4.214700698852539,3.197577714920044,-0.2575224041938782,-0.506442666053772,0.21484021842479706,1579,1500,1339,1500,2000,1503,1000,1000,1385,1445,1526,1822,1814,1489,1489,47,22,242,243,3,89.00999999999999,-0.99,89.00999999999999,-0.99,1,1,1,1,1,1,1,0,1,1,0,0,stabilized_mix,-0.18734420835971832,0.2280377447605133,0.010269349440932274,0.010147112421691418,0.004963809624314308,0.011582248844206333,0.0,0.12640000879764557,-0.010147112421691418,0.12143620103597641,-0.09702964872121811,1.1612083911895752,-0.09702964872121811,1.1612083911895752,-0.0,-0.0,0.0,0.0,1.0,-0.09702964872121811,1.1612083911895752,0.0073601542972028255,-0.0,-0.0,-0.0,-0.09702964872121811,1.1612083911895752,0.0073601542972028255,-0.00823742151260376,1.6480733156204224,13.393533706665039,-0.0006150296539999545,-0.12243444472551346,-0.013761473819613457,0.09421151131391525,-0.026529457420110703,-0.007884413935244083,-0.0403568372130394,0.0864792987704277,-0.00028299586847424507,-0.027904128655791283,-9.865500032901764e-06,13.494551658630371,6.796603202819824,6.697947978973389,1822.0,1814.0,0.0,0.0,-0.17475001513957977,0.016493389382958412,0.0001543846883578226,0.17824365198612213,-0.025441128760576248,0.0014225577469915152,0.0224091038107872,0.07356040179729462,0.055808257311582565,-0.09819047898054123,0.04475218430161476,-9.86549275694415e-06,0.5826275944709778,0.27950194478034973,0.8625494837760925,2,0.0,0,0,0,0,0,0.0,0.0,0,1656093866,4,3
827477062,5,428,33,0,7831693,7832,4903,-20,1267,8364,-3802,163,-83,60,24.84375,-0.0018482431769371033,0.06680484116077423,1.0049289464950562,-1.031641960144043,-2.142587423324585,-0.6617069840431213,-0.13723942637443542,-0.6018943786621094,0.2180173695087433,1579,1500,1339,1500,2000,1503,1000,1000,1385,1437,1489,1817,1818,1489,1489,51,26,242,243,3,89.00999999999999,-0.99,89.00999999999999,-0.99,1,1,1,1,1,1,1,0,1,1,0,0,stabilized_mix,-0.3354685306549072,-0.0929308831691742,0.015429643914103508,0.007717055734246969,0.0043643563985824585,0.011613725684583187,0.0,0.12640000879764557,-0.007717055734246969,0.12203565239906311,-0.06731362640857697,1.064481258392334,-0.06731362640857697,1.064481258392334,-0.0,-0.0,0.0,0.0,1.0,-0.06731362640857697,1.064481258392334,0.007904201745986938,-0.0,-0.0,-0.0,-0.06731362640857697,1.064481258392334,0.007904201745986938,0.054284028708934784,1.487577199935913,13.396109580993652,0.004052200820297003,-0.11059147119522095,0.003876893315464258,0.09228924661874771,0.013516996055841446,0.006343245506286621,0.01738549955189228,0.09867922216653824,-0.0003938996233046055,0.005774482619017363,1.8832506611943245e-06,13.478560447692871,6.729864120483398,6.748696327209473,1817.0,1818.0,0.0,0.0,-0.17294573783874512,-0.017502829432487488,0.006242929957807064,0.17440791428089142,0.00715234037488699,-0.001825649756938219,-0.018005548045039177,-0.03739520534873009,-0.011548965238034725,-0.11186884343624115,-0.019238954409956932,1.883203935904021e-06,0.5333037376403809,0.31881558895111084,0.8615273237228394,2,0.0,0,0,0,0,0,0.0,0.0,0,515045091,5,4
827477062,5,428,34,0,7835722,7836,4907,-44,3089,9059,-3585,44,-77,73,24.65625,0.24886676669120789,-0.15947550535202026,0.99833083152771,-1.8966104984283447,-3.399294376373291,-1.8453752994537354,-0.19290748238563538,-0.45460933446884155,0.21267980337142944,1580,1500,1342,1500,2000,1503,1000,1000,1387,1435,1480,1815,1819,1489,1489,55,30,242,243,3,89.00999999999999,-0.99,89.00999999999999,-0.99,1,1,1,1,1,1,1,0,1,1,0,0,stabilized_mix,0.16888774931430817,0.09556395560503006,0.05229002982378006,0.007348758168518543,0.004233627580106258,0.011739805340766907,0.0,0.12800000607967377,-0.007348758168518543,0.12376637756824493,-0.05928488075733185,0.9984645843505859,-0.05928488075733185,0.9984645843505859,-0.0,-0.0,0.0,0.0,1.0,-0.05928488075733185,0.9984645843505859,0.007904201745986938,-0.0,-0.0,-0.0,-0.05928488075733185,0.9984645843505859,0.007904201745986938,0.030342981219291687,1.41029953956604,13.394973754882812,0.002265247283503413,-0.10489899665117264,0.009614936076104641,0.0906498059630394,0.021469721570611,0.011669031344354153,0.031037915498018265,0.10245904326438904,-0.00020758341997861862,0.016103938221931458,5.563721060752869e-06,13.469046592712402,6.706705093383789,6.7623419761657715,1815.0,1819.0,0.0,0.0,-0.1687576025724411,-0.02545676752924919,0.007560176774859428,0.17119872570037842,0.017713556066155434,-0.002378258155658841,-0.03310209885239601,-0.05932888016104698,-0.032207876443862915,-0.11605685949325562,-0.03430568426847458,5.563723789236974e-06,0.5001115202903748,0.3309846520423889,0.8609192371368408,2,0.0,0,0,0,0,0,0.0,0.0,0,79895980,5,4
827477062,5,428,35,0,7839746,7840,4911,-36,-3296,8550,4950,-243,8,-73,24.71875,0.02998799830675125,-0.0297686830163002,1.02792489528656,0.7743222117424011,3.2835769653320312,-1.119117259979248,-0.2936849892139435,-0.3108338713645935,0.2048385888338089,1580,1500,1344,1500,2000,1503,1000,1000,1389,1443,1519,1816,1819,1489,1489,59,34,242,243,3,89.00999999999999,-0.99,89.00999999999999,-0.99,1,1,1,1,1,1,1,0,1,1,0,0,stabilized_mix,0.49337807297706604,0.31731730699539185,0.0063713788986206055,0.008924326859414577,0.005280048120766878,0.01182026881724596,0.0,0.12800000607967377,-0.008924326859414577,0.12271995842456818,-0.08208496123552322,1.1287643909454346,-0.08208496123552322,1.1287643909454346,-0.0,-0.0,0.0,0.0,1.0,-0.08208496123552322,1.1287643909454346,0.007904201745986938,-0.0,-0.0,-0.0,-0.08208496123552322,1.1287643909454346,0.007904201745986938,-0.033998653292655945,1.6120761632919312,13.391759872436523,-0.002538768807426095,-0.11980137228965759,-0.00901093054562807,0.0936938002705574,-0.02068115770816803,-0.004756535403430462,-0.029683701694011688,0.08886655420064926,6.612669676542282e-05,0.009766140021383762,3.441236913204193e-06,13.488483428955078,6.7270355224609375,6.761447906494141,1816.0,1819.0,0.0,0.0,-0.17301927506923676,0.01114633772522211,0.001192309893667698,0.17718514800071716,-0.01664581522345543,0.0009809918701648712,0.013514472171664238,0.05730922892689705,-0.019532280042767525,-0.10084860026836395,0.03289781138300896,3.441293301875703e-06,0.5658725500106812,0.287197470664978,0.8621616363525391,2,0.0,0,0,0,0,0,0.0,0.0,0,1698963215,5,4
827477062,5,428,36,0,7843766,7844,4915,-8,-1156,7978,2157,-97,72,-7,24.9375,-0.14690722525119781,0.15314960479736328,1.0381635427474976,0.754439115524292,4.567183017730713,1.350081443786621,-0.20182722806930542,-0.383984237909317,0.20626215636730194,1580,1500,1344,1500,2000,1503,1000,1000,1389,1443,1527,1820,1816,1489,1489,63,38,242,243,3,89.00999999999999,-0.99,89.00999999999999,-0.99,1,1,1,1,1,1,1,0,1,1,0,0,stabilized_mix,0.17240631580352783,8.369982242584229e-05,-0.0746643915772438,0.009000808000564575,0.005217510741204023,0.011615429073572159,0.0,0.12800000607967377,-0.009000808000564575,0.12278249859809875,-0.08389098197221756,1.1443798542022705,-0.08389098197221756,1.1443798542022705,-0.0,-0.0,0.0,0.0,1.0,-0.08389098197221756,1.1443798542022705,0.008257878012955189,-0.0,-0.0,-0.0,-0.08389098197221756,1.1443798542022705,0.008257878012955189,-0.01924765110015869,1.6119604110717773,13.393816947937012,-0.0014370540156960487,-0.11977489292621613,-0.01426241360604763,0.09378007799386978,-0.028765708208084106,-0.004634295590221882,-0.04305090010166168,0.08920930325984955,1.643458381295204e-05,-0.011781683191657066,-4.117842763662338e-06,13.490482330322266,6.7658305168151855,6.724652290344238,1820.0,1816.0,0.0,0.0,-0.1748536080121994,0.019518155604600906,-0.0003200224309694022,0.17737582325935364,-0.02635093778371811,0.0016554382164031267,0.013167446479201317,0.0797123834490776,0.023563366383314133,-0.10125365853309631,0.04771123453974724,-4.117836851946777e-06,0.5737253427505493,0.288308322429657,0.8622893691062927,2,0.0,0,0,0,0,0,0.0,0.0,0,3155676636,5,4
827477062,5,428,37,0,7847788,7848,4919,8,4307,8255,-3422,107,228,56,25.0625,0.0752229392528534,-0.13694988191127777,1.0193475484848022,-0.9197699427604675,-1.0569514036178589,6.5768561363220215,-0.2070639729499817,-0.4184439480304718,0.22623109817504883,1580,1500,1344,1500,2000,1503,1000,1000,1389,1438,1493,1826,1809,1489,1489,67,42,242,243,3,89.00999999999999,-0.99,89.00999999999999,-0.99,1,1,1,1,1,1,1,0,1,1,0,0,stabilized_mix,0.08849170804023743,0.04110085591673851,-0.06884416192770004,0.009066627360880375,0.005011531990021467,0.011323577724397182,0.0,0.12800000607967377,-0.009066627360880375,0.12298847734928131,-0.07780341058969498,1.0554004907608032,-0.07780341058969498,1.0554004907608032,-0.0,-0.0,0.0,0.0,1.0,-0.07780341058969498,1.0554004907608032,0.008257878012955189,-0.0,-0.0,-0.0,-0.07780341058969498,1.0554004907608032,0.008257878012955189,-0.0028022602200508118,1.491556167602539,13.394057273864746,-0.00020921668328810483,-0.11090262234210968,0.0037834167014807463,0.09213585406541824,0.0066692158579826355,0.005655351094901562,0.010535323061048985,0.09772288799285889,-0.0006806128658354282,-0.05739389732480049,-2.032611519098282e-05,13.476850509643555,6.8400559425354,6.636794567108154,1826.0,1809.0,0.0,0.0,-0.17139756679534912,-0.014194546267390251,0.005577232223004103,0.17410001158714294,0.006976705975830555,-0.0010414810385555029,-0.016053013503551483,-0.018447281792759895,0.11478779464960098,-0.110773965716362,-0.011658268980681896,-2.0326078811194748e-05,0.5291321873664856,0.3157353401184082,0.8614180684089661,2,0.0,0,0,0,0,0,0.0,0.0,0,1681887748,5,4
827477062,5,428,38,0,7851810,7852,4923,-18,-2132,9383,965,-125,-26,17,24.859375,0.04861919581890106,-0.044997524470090866,1.054436445236206,-0.6471154689788818,-0.023183465003967285,4.47721004486084,-0.2941838502883911,-0.3389485478401184,0.2530394196510315,1580,1500,1344,1500,2000,1503,1000,1000,1389,1439,1499,1823,1811,1489,1489,71,46,242,243,3,89.00999999999999,-0.99,89.00999999999999,-0.99,1,1,1,1,1,1,1,0,1,1,0,0,stabilized_mix,0.2977076768875122,0.24459123611450195,-0.08942587673664093,0.008854402229189873,0.005152061115950346,0.011033713817596436,0.0,0.12800000607967377,-0.008854402229189873,0.12284794449806213,-0.07572029531002045,1.0505601167678833,-0.07572029531002045,1.0505601167678833,-0.0,-0.0,0.0,0.0,1.0,-0.07572029531002045,1.0505601167678833,0.00848777312785387,-0.0,-0.0,-0.0,-0.07572029531002045,1.0505601167678833,0.00848777312785387,-0.017901591956615448,1.5053364038467407,13.391454696655273,-0.0013367913197726011,-0.11194021254777908,0.001206810586154461,0.0921478345990181,0.00014740585174877197,0.003979957662522793,0.001393764279782772,0.09614336490631104,-0.0016163992695510387,-0.03907102718949318,-1.4240620657801628e-05,13.475809097290039,6.809107780456543,6.666701793670654,1823.0,1811.0,0.0,0.0,-0.16986402869224548,-0.008149209432303905,0.004539370071142912,0.17410558462142944,0.002227432793006301,6.093570846132934e-05,-0.011294295080006123,-0.0004046277899760753,0.07814205437898636,-0.1089794710278511,-0.001543012447655201,-1.4240598829928786e-05,0.5266426801681519,0.3106445372104645,0.861351490020752,2,0.0,0,0,0,0,0,0.0,0.0,0,1060049242,5,4
827477062,5,428,39,0,7855833,7856,4927,-18,-2106,9819,4585,-166,-190,21,24.859375,-0.174378901720047,0.20238357782363892,1.0790613889694214,-0.19576233625411987,3.1971070766448975,-4.475547790527344,-0.1683044731616974,-0.39552709460258484,0.24368810653686523,1580,1500,1344,1500,2000,1503,1000,1000,1389,1440,1519,1812,1823,1489,1489,75,50,242,243,3,89.00999999999999,-0.99,89.00999999999999,-0.99,1,1,1,1,1,1,1,0,1,1,0,0,stabilized_mix,0.07781140506267548,-0.13341107964515686,-0.16810840368270874,0.009478060528635979,0.005253736861050129,0.010491880588233471,0.0,0.12800000607967377,-0.009478060528635979,0.12274626642465591,-0.08549986034631729,1.1072717905044556,-0.08549986034631729,1.1072717905044556,-0.0,-0.0,0.0,0.0,1.0,-0.08549986034631729,1.1072717905044556,0.00848777312785387,-0.0,-0.0,-0.0,-0.08549986034631729,1.1072717905044556,0.00848777312785387,-0.017943263053894043,1.5534769296646118,13.39460563659668,-0.0013395879650488496,-0.11546185612678528,-0.009710810147225857,0.09331509470939636,-0.02015385404229164,0.0012020168360322714,-0.02988024242222309,0.09432656317949295,-0.0012899772264063358,0.03905652090907097,1.3218261301517487e-05,13.484400749206543,6.676109313964844,6.808291912078857,1812.0,1823.0,0.0,0.0,-0.17442850768566132,0.010896444320678711,0.001169067807495594,0.1764170229434967,-0.017926711589097977,0.0015422538854181767,-0.0034166972618550062,0.05580004304647446,-0.07811304181814194,-0.10699613392353058,0.03308956325054169,1.3218289495853242e-05,0.5552839040756226,0.3047967553138733,0.8619006276130676,2,0.0,0,0,0,0,0,0.0,0.0,0,928151513,5,4
827477062,5,428,40,0,7859857,7860,4931,-8,6453,7342,-4202,233,404,44,24.9375,-0.05293727666139603,-0.12412261217832565,0.9967014789581299,-1.0098600387573242,-3.880551815032959,5.914538383483887,-0.13000431656837463,-0.5464353561401367,0.2473479062318802,1580,1500,1344,1500,2000,1503,1000,1000,1389,1438,1477,1825,1810,1489,1489,79,54,242,243,3,89.00999999999999,-0.99,89.00999999999999,-0.99,1,1,1,1,1,1,1,0,1,1,0,0,stabilized_mix,-0.27198198437690735,-0.16938014328479767,-0.18463683128356934,0.008511234074831009,0.004261141177266836,0.00967536959797144,0.0,0.12800000607967377,-0.008511234074831009,0.1237388625741005,-0.07304263114929199,1.0619155168533325,-0.07304263114929199,1.0619155168533325,-0.0,-0.0,0.0,0.0,1.0,-0.07304263114929199,1.0619155168533325,0.00848777312785387,-0.0,-0.0,-0.0,-0.07304263114929199,1.0619155168533325,0.00848777312785387,0.034205108880996704,1.4824544191360474,13.395621299743652,0.0025534487795084715,-0.11021822690963745,0.011065026745200157,0.09174995869398117,0.024482551962137222,0.006209022365510464,0.03563746064901352,0.09767495095729828,-0.0014177286066114902,-0.05161408334970474,-1.856114249676466e-05,13.477444648742676,6.831528186798096,6.645916938781738,1825.0,1810.0,0.0,0.0,-0.17208871245384216,-0.029758941382169724,0.008323533460497856,0.17337968945503235,0.02040950581431389,-0.002267593750730157,-0.01762538217008114,-0.06772840768098831,0.10322816669940948,-0.11072384566068649,-0.03942922502756119,-1.8561133401817642e-05,0.5322123169898987,0.31557855010032654,0.861456036567688,2,0.0,0,0,0,0,0,0.0,0.0,0,3653174924,5,4
827477062,5,428,41,0,7863880,7864,4935,-8,-4698,8999,-280,-195,411,-59,24.9375,0.2328653335571289,-0.10721901059150696,1.0522392988204956,0.6292628645896912,1.211950659751892,11.273297309875488,-0.3062404990196228,-0.3855612874031067,0.2863389551639557,1580,1500,1344,1500,2000,1503,1000,1000,1389,1443,1508,1833,1804,1489,1489,83,58,242,243,3,89.00999999999999,-0.99,89.00999999999999,-0.99,1,1,1,1,1,1,1,0,1,1,0,0,stabilized_mix,0.26826852560043335,0.3135814070701599,-0.22788016498088837,0.007601266261190176,0.004411708563566208,0.008816971443593502,0.0,0.12800000607967377,-0.007601266261190176,0.12358829379081726,-0.06857306510210037,1.1149232387542725,-0.06857306510210037,1.1149232387542725,-0.0,-0.0,0.0,0.0,1.0,-0.06857306510210037,1.1149232387542725,0.009967141784727573,-0.0,-0.0,-0.0,-0.06857306510210037,1.1149232387542725,0.009967141784727573,0.004030048847198486,1.5961326360702515,13.388581275939941,0.00030100642470642924,-0.11865594238042831,-0.004373040050268173,0.09341815859079361,-0.007637539878487587,-0.003867306048050523,-0.012107652612030506,0.08971983939409256,-0.0027787727303802967,-0.09837807714939117,-3.540492616593838e-05,13.483388900756836,6.918719291687012,6.564670085906982,1833.0,1804.0,0.0,0.0,-0.17218293249607086,0.0012394519289955497,0.00300173950381577,0.17659921944141388,-0.00807533785700798,0.0013196684885770082,0.010982709005475044,0.02115252986550331,0.19675615429878235,-0.10177724808454514,0.013415665365755558,-3.540489706210792e-05,0.5585150718688965,0.2899516224861145,0.8618359565734863,2,0.0,0,0,0,0,0,0.0,0.0,0,1763165385,6,5
827477062,5,428,42,0,7867895,7868,4939,-16,-4990,8296,2692,-193,-132,61,24.875,-0.023352261632680893,0.2730872631072998,1.0956443548202515,-0.17843598127365112,7.580883979797363,3.1586809158325195,-0.17980268597602844,-0.30818918347358704,0.31767746806144714,1580,1500,1344,1500,2000,1503,1000,1000,1389,1441,1546,1822,1813,1489,1489,87,62,242,243,3,89.00999999999999,-0.99,89.00999999999999,-0.99,1,1,1,1,1,1,1,0,1,1,0,0,stabilized_mix,0.34943681955337524,-0.11265970021486282,-0.371360182762146,0.008845529519021511,0.004759300500154495,0.007533850148320198,0.0,0.12800000607967377,-0.008845529519021511,0.12324070930480957,-0.07782956212759018,1.084363579750061,-0.07782956212759018,1.084363579750061,-0.0,-0.0,0.0,0.0,1.0,-0.07782956212759018,1.084363579750061,0.009967141784727573,-0.0,-0.0,-0.0,-0.07782956212759018,1.084363579750061,0.009967141784727573,-0.026112139225006104,1.5249263048171997,13.39225959777832,-0.0019497909815981984,-0.11337771266698837,-0.02399359829723835,0.09186261147260666,-0.04781821370124817,0.0010965557303279638,-0.07184416800737381,0.09329112619161606,-0.0038726930506527424,-0.02756469137966633,-1.1003110557794571e-05,13.478824615478516,6.794427871704102,6.684396743774414,1822.0,1813.0,0.0,0.0,-0.17159530520439148,0.03847062587738037,-0.0035226589534431696,0.1736108362674713,-0.044272489845752716,0.005323393736034632,-0.0031142954248934984,0.1323113888502121,0.05512938275933266,-0.1057816743850708,0.07947935909032822,-1.1003085091942921e-05,0.5435764789581299,0.301461786031723,0.8615442514419556,2,0.0,0,0,0,0,0,0.0,0.0,0,1629233402,6,5
827477062,5,428,43,0,7871915,7872,4943,-2,5745,9378,-3318,319,317,116,24.984375,-0.004058517515659332,-0.19585341215133667,1.022835612297058,-2.8984694480895996,-5.402071952819824,2.800931930541992,-0.17349499464035034,-0.36921030282974243,0.31885358691215515,1580,1500,1344,1500,2000,1503,1000,1000,1389,1432,1467,1821,1812,1489,1489,91,66,242,243,3,89.00999999999999,-0.99,89.00999999999999,-0.99,1,1,1,1,1,1,1,0,1,1,0,0,stabilized_mix,0.1568274199962616,-0.038486748933792114,-0.31355297565460205,0.008529342710971832,0.00360462861135602,0.00614261906594038,0.0,0.12800000607967377,-0.008529342710971832,0.12439537793397903,-0.06413915753364563,0.9354314208030701,-0.06413915753364563,0.9354314208030701,-0.0,-0.0,0.0,0.0,1.0,-0.06413915753364563,0.9354314208030701,0.010928737930953503,-0.0,-0.0,-0.0,-0.06413915753364563,0.9354314208030701,0.010928737930953503,0.00575903058052063,1.3197593688964844,13.391636848449707,0.00043004678445868194,-0.09823379665613174,0.01811174303293228,0.08851901441812515,0.03416819125413895,0.017850488424301147,0.052410565316677094,0.10624606162309647,-0.003913747612386942,-0.02444274164736271,-9.924755431711674e-06,13.456512451171875,6.7778801918029785,6.678632736206055,1821.0,1812.0,0.0,0.0,-0.16493308544158936,-0.03966064751148224,0.009772442281246185,0.16703006625175476,0.03332406282424927,-0.001501076272688806,-0.05058783292770386,-0.09428393840789795,0.04888548329472542,-0.12021972984075546,-0.05783327296376228,-9.924770893121604e-06,0.4688138961791992,0.3431761562824249,0.8601180911064148,2,0.0,0,0,0,0,0,0.0,0.0,0,2694652055,6,5
827477062,5,428,44,0,7875938,7876,4947,-22,-5985,11917,1347,-365,295,-16,24.828125,-0.029290638864040375,0.09897655248641968,1.1310964822769165,-0.308263897895813,3.2234344482421875,9.009263038635254,-0.24624478816986084,-0.3746415078639984,0.3512735962867737,1580,1500,1344,1500,2000,1503,1000,1000,1389,1440,1519,1830,1806,1489,1489,95,70,242,243,3,89.00999999999999,-0.99,89.00999999999999,-0.99,1,1,1,1,1,1,1,0,1,1,0,0,stabilized_mix,0.14786691963672638,0.1321961134672165,-0.361579567193985,0.008971350267529488,0.004160402342677116,0.004856177140027285,0.0,0.12800000607967377,-0.008971350267529488,0.1238396018743515,-0.07796470075845718,1.0762168169021606,-0.07796470075845718,1.0762168169021606,-0.0,-0.0,0.0,0.0,1.0,-0.07796470075845718,1.0762168169021606,0.010928737930953503,-0.0,-0.0,-0.0,-0.07796470075845718,1.0762168169021606,0.010928737930953503,-0.009966231882572174,1.5293720960617065,13.389232635498047,-0.0007443466456606984,-0.11373108625411987,-0.010218939743936062,0.09266794472932816,-0.02033361792564392,0.0018947042990475893,-0.030515406280755997,0.09496890753507614,-0.005045419093221426,-0.07862064987421036,-2.9283110052347183e-05,13.476298332214355,6.8845648765563965,6.591733932495117,1830.0,1806.0,0.0,0.0,-0.17173556983470917,0.012026379816234112,0.0010474259033799171,0.17509567737579346,-0.018850725144147873,0.0034994587767869234,-0.005380219779908657,0.05625954270362854,0.15724129974842072,-0.10765755921602249,0.03377140313386917,-2.928312460426241e-05,0.5395185351371765,0.3068653345108032,0.861382782459259,2,0.0,0,0,0,0,0,0.0,0.0,0,524537794,6,5
827477062,5,428,45,0,7879960,7880,4951,-20,4802,6834,-3232,91,200,118,24.84375,0.06015344709157944,0.10715097188949585,1.06504225730896,-2.0371668338775635,2.710566759109497,6.17685604095459,-0.09162212908267975,-0.3741053640842438,0.38000816106796265,1580,1500,1344,1500,2000,1503,1000,1000,1389,1433,1516,1826,1809,1489,1489,99,74,242,243,3,89.00999999999999,-0.99,89.00999999999999,-0.99,1,1,1,1,1,1,1,0,1,1,0,0,stabilized_mix,0.09392653405666351,-0.2967947721481323,-0.5022568702697754,0.009059133008122444,0.0034767063334584236,0.002953912829980254,0.0,0.12800000607967377,-0.009059133008122444,0.12452329695224762,-0.07431605458259583,1.021519422531128,-0.07431605458259583,1.021519422531128,-0.0,-0.0,0.0,0.0,1.0,-0.07431605458259583,1.021519422531128,0.010928737930953503,-0.0,-0.0,-0.0,-0.07431605458259583,1.021519422531128,0.010928737930953503,-0.004861868917942047,1.4184794425964355,13.393397331237793,-0.00036300488864071667,-0.1055155098438263,-0.008742484264075756,0.09167086333036423,-0.017124243080615997,0.012534290552139282,-0.025692958384752274,0.10449635237455368,-0.006048445124179125,-0.053903236985206604,-2.0983046852052212e-05,13.468302726745605,6.839066982269287,6.629236221313477,1826.0,1809.0,0.0,0.0,-0.1724112182855606,0.009256156161427498,0.0014982119901105762,0.17311465740203857,-0.016104035079479218,0.0037545510567724705,-0.035555269569158554,0.047308314591646194,0.10780647397041321,-0.11834922432899475,0.028391601517796516,-2.0983088688808493e-05,0.5121095776557922,0.3375409245491028,0.8608716726303101,2,0.0,0,0,0,0,0,0.0,0.0,0,2917819161,6,5
827477062,5,428,46,0,7883982,7884,4955,-14,743,8801,3296,-156,357,34,24.890625,0.052984148263931274,-0.22538098692893982,1.0727207660675049,-2.107572078704834,0.32625341415405273,10.735920906066895,-0.22311770915985107,-0.29343828558921814,0.419223427772522,1580,1500,1350,1500,2000,1503,1000,1000,1394,1434,1501,1832,1803,1489,1489,103,78,242,243,3,89.00999999999999,-0.99,89.00999999999999,-0.99,1,1,1,1,1,1,1,0,1,1,0,0,stabilized_mix,0.31383559107780457,0.1513742208480835,-0.49784401059150696,0.008865183219313622,0.0028498743195086718,0.000976723269559443,0.0,0.12800000607967377,-0.008865183219313622,0.12515012919902802,-0.06996361166238785,0.9876788854598999,-0.06996361166238785,0.9876788854598999,-0.0,-0.0,0.0,0.0,1.0,-0.06996361166238785,0.9876788854598999,0.01022376399487257,-0.0,-0.0,-0.0,-0.06996361166238785,0.9876788854598999,0.01022376399487257,-0.01714944839477539,1.4029784202575684,13.391196250915527,-0.0012806502636522055,-0.1043878048658371,0.00020253323600627482,0.09095420688390732,-0.0020624829921871424,0.01297291275113821,-0.001544765429571271,0.10403615981340408,-0.007417316082865,-0.09368858486413956,-3.5387114621698856e-05,13.46450138092041,6.909185886383057,6.555315017700195,1832.0,1803.0,0.0,0.0,-0.16865938901901245,-0.0057586622424423695,0.004122813232243061,0.1717151701450348,0.0003708205185830593,0.0032235283870249987,-0.03678407147526741,0.005694196093827486,0.1873771697282791,-0.11779677867889404,0.0017060814425349236,-3.538706368999556e-05,0.49507686495780945,0.33606013655662537,0.8606287240982056,2,0.0,0,0,0,0,0,0.0,0.0,0,3742306011,6,5
827477062,5,428,47,0,7888023,7888,4959,-16,-2461,7649,132,-226,-4,178,24.875,-0.07970282435417175,0.17777343094348907,1.103359580039978,-2.813969612121582,8.035508155822754,5.7891387939453125,-0.14572438597679138,-0.3508498966693878,0.4556610584259033,1580,1500,1350,1500,2000,1503,1000,1000,1394,1432,1549,1825,1808,1489,1489,107,82,242,243,3,89.00999999999999,-0.99,89.00999999999999,-0.99,1,1,1,1,1,1,1,0,1,1,0,0,stabilized_mix,0.047151003032922745,-0.09350822120904922,-0.6111479997634888,0.009177803061902523,0.00299232080578804,-0.0013143506366759539,0.0,0.12800000607967377,-0.009177803061902523,0.12500768899917603,-0.06942687183618546,0.9456394910812378,-0.06942687183618546,0.9456394910812378,-0.0,-0.0,0.0,0.0,1.0,-0.06942687183618546,0.9456394910812378,0.01022376399487257,-0.0,-0.0,-0.0,-0.06942687183618546,0.9456394910812378,0.01022376399487257,-0.0025900602340698242,1.327471375465393,13.393228530883789,-0.00019338580023031682,-0.09879244863986969,-0.026963284239172935,0.08901755511760712,-0.05083344876766205,0.01732797548174858,-0.07762295752763748,0.10706338286399841,-0.008689230307936668,-0.05051976442337036,-2.0723091438412666e-05,13.458854675292969,6.833043098449707,6.62581205368042,1825.0,1808.0,0.0,0.0,-0.1665852963924408,0.04286570101976395,-0.004074046388268471,0.16799871623516083,-0.04961061105132103,0.007940207608044147,-0.04911303520202637,0.14024607837200165,0.10103952884674072,-0.12116217613220215,0.08561345189809799,-2.0723147827084176e-05,0.4740923345088959,0.3458062708377838,0.8602678179740906,2,0.0,0,0,0,0,0,0.0,0.0,0,3821846071,6,5
827477062,5,428,48,0,7892024,7892,4963,-26,3829,10612,-1652,151,635,132,24.796875,0.052910372614860535,-0.16731838881969452,1.1255769729614258,-4.512608051300049,-1.7519540786743164,11.476329803466797,-0.12250477075576782,-0.3684726655483246,0.48314645886421204,1580,1500,1350,1500,2000,1503,1000,1000,1394,1426,1489,1833,1801,1489,1489,111,86,242,243,3,89.00999999999999,-0.99,89.00999999999999,-0.99,1,1,1,1,1,1,1,0,1,1,0,0,stabilized_mix,0.014687659218907356,-0.049026280641555786,-0.6540136337280273,0.0088662663474679,0.0022825063206255436,-0.003817738965153694,0.0,0.12800000607967377,-0.0088662663474679,0.12571750581264496,-0.062101706862449646,0.8805591464042664,-0.062101706862449646,0.8805591464042664,-0.0,-0.0,0.0,0.0,1.0,-0.062101706862449646,0.8805591464042664,0.008435565046966076,-0.0,-0.0,-0.0,-0.062101706862449646,0.8805591464042664,0.008435565046966076,0.011429332196712494,1.2330431938171387,13.39633846282959,0.0008531681378372014,-0.09178464859724045,0.005729653872549534,0.08859811723232269,0.011093788780272007,0.027799785137176514,0.017548486590385437,0.11626964062452316,-0.009648650884628296,-0.10014986991882324,-3.842951264232397e-05,13.452969551086426,6.918632507324219,6.534337520599365,1833.0,1801.0,0.0,0.0,-0.16576378047466278,-0.017226723954081535,0.006028379313647747,0.1671370565891266,0.010525664314627647,0.003266542451456189,-0.07875987142324448,-0.030577367171645164,0.20029973983764648,-0.13147597014904022,-0.01934538036584854,-3.842947990051471e-05,0.44137313961982727,0.37540680170059204,0.8598915934562683,2,0.0,0,0,0,0,0,0.0,0.0,0,3598214597,6,5
827477062,5,428,53,4,7911179,7912,4982,-2,-5625,11455,-2658,-154,465,108,24.984375,0.010740045458078384,0.18089574575424194,1.2441174983978271,-3.264106512069702,3.3124516010284424,18.883625030517578,-0.010746598243713379,-0.3204573392868042,0.7509921789169312,1580,1500,1350,1500,2000,1503,1000,1000,1394,1429,1520,1845,1792,1489,1489,131,106,242,243,3,89.00999999999999,-0.99,89.00999999999999,-0.99,1,1,1,1,1,1,1,0,1,1,0,0,stabilized_mix,0.041146304458379745,-0.13122089207172394,-1.100347876548767,0.007215511053800583,0.0004814051790162921,-0.020031776279211044,0.0,0.12800000607967377,-0.007215511053800583,0.12751859426498413,-0.05481526628136635,0.9687415957450867,-0.05481526628136635,0.9687415957450867,-0.0,-0.0,0.0,0.0,1.0,-0.05481526628136635,0.9687415957450867,0.0016631722683086991,-0.0,-0.0,-0.0,-0.05481526628136635,0.9687415957450867,0.0016631722683086991,0.01742296665906906,1.3276530504226685,13.40786075592041,0.0012994584394618869,-0.0986986756324768,-0.011669031344354153,0.09042450040578842,-0.02093522623181343,0.02007715404033661,-0.03174738585948944,0.11145678907632828,-0.01899822987616062,-0.16479071974754333,-6.432610098272562e-05,13.473443984985352,7.058352470397949,6.415091514587402,1845.0,1792.0,0.0,0.0,-0.17156659066677094,0.014981046319007874,0.000626664434093982,0.17082852125167847,-0.021484989672899246,0.010633774101734161,-0.056969404220581055,0.05781318619847298,0.32958143949508667,-0.12624996900558472,0.035065263509750366,-6.432613008655608e-05,0.48514559864997864,0.35993704199790955,0.8612003326416016,2,0.0,0,0,0,0,0,0.0,0.0,0,3409625015,7,6
827477062,5,428,54,4,7915167,7916,4986,-22,6549,13381,1798,-132,725,179,24.828125,0.018893349915742874,-0.16011621057987213,1.1881767511367798,-5.9266510009765625,5.075655937194824,13.707504272460938,0.057451777160167694,-0.2747955918312073,0.7980860471725464,1580,1500,1350,1500,2000,1503,1000,1000,1394,1420,1531,1837,1797,1489,1489,135,110,242,243,3,89.00999999999999,-0.99,89.00999999999999,-0.99,1,1,1,1,1,1,1,0,1,1,0,0,stabilized_mix,0.1284315586090088,-0.11939480155706406,-1.0949046611785889,0.007305051665753126,-0.0004530968435574323,-0.02433607541024685,0.0,0.12800000607967377,-0.007305051665753126,0.1284531056880951,-0.04758131504058838,0.8366769552230835,-0.04758131504058838,0.8366769552230835,-0.0,-0.0,0.0,0.0,1.0,-0.04758131504058838,0.8366769552230835,0.0016631722683086991,-0.0,-0.0,-0.0,-0.04758131504058838,0.8366769552230835,0.0016631722683086991,0.015199773013591766,1.131087303161621,13.409219741821289,0.0011335309827700257,-0.0841522067785263,-0.017526913434267044,0.08755308389663696,-0.03217402100563049,0.036505118012428284,-0.04857322573661804,0.12521225214004517,-0.02064211666584015,-0.11962053924798965,-4.9091875553131104e-05,13.456847190856934,6.973882675170898,6.482964038848877,1837.0,1797.0,0.0,0.0,-0.1671946793794632,0.02633596770465374,-0.0012121417094022036,0.16521763801574707,-0.03217564523220062,0.012427128851413727,-0.1034395694732666,0.08858690410852432,0.2392410784959793,-0.14157986640930176,0.053486719727516174,-4.909193012281321e-05,0.41901442408561707,0.4041402339935303,0.8601394891738892,2,0.0,0,0,0,0,0,0.0,0.0,0,587438831,7,6
827477062,5,428,55,4,7919193,7920,4990,-8,-6819,11163,-1200,-165,606,132,24.9375,0.0031150169670581818,0.19822245836257935,1.2256388664245605,-3.1905648708343506,4.445109844207764,21.57928466796875,0.031107798218727112,-0.26649656891822815,0.8819454908370972,1580,1500,1350,1500,2000,1503,1000,1000,1394,1429,1527,1849,1788,1489,1489,139,114,242,243,3,89.00999999999999,-0.99,89.00999999999999,-0.99,1,1,1,1,1,1,1,0,1,1,0,0,stabilized_mix,0.10458497703075409,-0.10307181626558304,-1.2412916421890259,0.007514744997024536,-0.0005109590128995478,-0.028992673382163048,0.0,0.12800000607967377,-0.007514744997024536,0.1285109668970108,-0.05710560455918312,0.9765728712081909,-0.05710560455918312,0.9765728712081909,-0.0,-0.0,0.0,0.0,1.0,-0.05710560455918312,0.9765728712081909,0.0016631722683086991,-0.0,-0.0,-0.0,-0.05710560455918312,0.9765728712081909,0.0016631722683086991,0.004858396947383881,1.3287386894226074,13.408843994140625,0.0003623277589213103,-0.09877172857522964,-0.014631527476012707,0.09042929857969284,-0.028092198073863983,0.019624151289463043,-0.04176858067512512,0.1114615872502327,-0.023569364100694656,-0.1883147805929184,-7.415947038680315e-05,13.474517822265625,7.10805606842041,6.366461277008057,1849.0,1788.0,0.0,0.0,-0.1724085509777069,0.02111908607184887,-0.00047220877604559064,0.170852929353714,-0.02693996950984001,0.01352789904922247,-0.0556858628988266,0.07758180052042007,0.3766295611858368,-0.12626607716083527,0.04613441973924637,-7.415944855893031e-05,0.4891205132007599,0.359954297542572,0.861268937587738,2,0.0,0,0,0,0,0,0.0,0.0,0,1948072475,7,6
827477062,5,428,56,4,7923209,7924,4994,-36,5703,12962,4276,-208,655,171,24.71875,-0.038838427513837814,-0.21129779517650604,1.2163153886795044,-6.369194507598877,6.090646743774414,15.16379451751709,0.04540267586708069,-0.22573000192642212,0.9420194625854492,1580,1500,1350,1500,2000,1503,1000,1000,1394,1419,1537,1840,1795,1489,1489,143,118,242,243,3,89.00999999999999,-0.99,89.00999999999999,-0.99,1,1,1,1,1,1,1,0,1,1,0,0,stabilized_mix,0.1361861228942871,0.046867989003658295,-1.2650010585784912,0.008154265582561493,-0.0017404159298166633,-0.033923570066690445,0.0,0.12800000607967377,-0.008154265582561493,0.1297404170036316,-0.05066932365298271,0.8061864972114563,-0.05066932365298271,0.8061864972114563,-0.0,-0.0,0.0,0.0,1.0,-0.05066932365298271,0.8061864972114563,0.0015412032371386886,-0.0,-0.0,-0.0,-0.05066932365298271,0.8061864972114563,0.0015412032371386886,0.0016877055168151855,1.0924214124679565,13.40913200378418,0.00012586239608936012,-0.08128894120454788,-0.020043598487973213,0.08683402836322784,-0.03863111883401871,0.03924231231212616,-0.057340867817401886,0.12756118178367615,-0.025666341185569763,-0.1323290765285492,-5.5298442021012306e-05,13.453557014465332,7.003270626068115,6.450286388397217,1840.0,1795.0,0.0,0.0,-0.16568078100681305,0.031554367393255234,-0.002077932469546795,0.16382429003715515,-0.03677503764629364,0.015446830540895462,-0.1111634150147438,0.10630183666944504,0.2646581530570984,-0.1441849172115326,0.06309562176465988,-5.5298394727287814e-05,0.40388864278793335,0.4116770029067993,0.8599291443824768,2,0.0,0,0,0,0,0,0.0,0.0,0,1762115944,7,6
827477062,5,428,58,5,7931233,7932,5002,-8,-1373,12836,3316,-195,691,131,24.9375,-0.10400688648223877,-0.1348937749862671,1.326906681060791,-5.7686357498168945,5.443735599517822,17.758970260620117,-0.006387591361999512,-0.25280192494392395,1.1000730991363525,1582,1500,1354,1500,2000,1503,1000,1000,1397,1421,1533,1844,1791,1489,1489,151,126,242,243,3,89.00999999999999,-0.99,89.00999999999999,-0.99,1,1,1,1,1,1,1,0,1,1,0,0,stabilized_mix,-0.06164245307445526,0.255271315574646,-1.6236884593963623,0.007685956545174122,-0.0017334860749542713,-0.04534384608268738,0.0,0.13120000064373016,-0.007685956545174122,0.13293348252773285,-0.04774001985788345,0.8256939053535461,-0.04774001985788345,0.8256939053535461,-0.0,-0.0,0.0,0.0,1.0,-0.04774001985788345,0.8256939053535461,0.002791923237964511,-0.0,-0.0,-0.0,-0.04774001985788345,0.8256939053535461,0.002791923237964511,0.015573997050523758,1.1312631368637085,13.406389236450195,0.0011616841657087207,-0.08418290317058563,-0.01857912912964821,0.08723191171884537,-0.03451094031333923,0.035539187490940094,-0.05166994035243988,0.12428948283195496,-0.031183451414108276,-0.1549762487411499,-6.515590939670801e-05,13.454042434692383,7.05280065536499,6.401241779327393,1844.0,1791.0,0.0,0.0,-0.16552774608135223,0.028223924338817596,-0.0014812948647886515,0.16457852721214294,-0.03410646691918373,0.017848188057541847,-0.10068168491125107,0.09501110762357712,0.3099524974822998,-0.1405113786458969,0.05688771232962608,-6.515589484479278e-05,0.4135364592075348,0.40117383003234863,0.8599601984024048,2,0.0,0,0,0,0,0,0.0,0.0,0,2740150978,7,6
827477062,5,428,59,5,7935258,7936,5005,-28,3657,5096,-5954,-303,392,233,24.78125,0.12607376277446747,-0.030236467719078064,1.1536476612091064,-4.899908542633057,7.917514801025391,16.276140213012695,0.02149566262960434,-0.2441469132900238,1.1748322248458862,1582,1500,1354,1500,2000,1503,1000,1000,1397,1424,1549,1843,1792,1489,1489,155,130,242,243,3,89.00999999999999,-0.99,89.00999999999999,-0.99,1,1,1,1,1,1,1,0,1,1,0,0,stabilized_mix,0.0015265867114067078,0.19603422284126282,-1.7236324548721313,0.007103810552507639,-0.0009500795276835561,-0.052229028195142746,0.0,0.13120000064373016,-0.007103810552507639,0.1321500837802887,-0.04628872126340866,0.8610954284667969,-0.04628872126340866,0.8610954284667969,-0.0,-0.0,0.0,0.0,1.0,-0.04628872126340866,0.8610954284667969,0.002791923237964511,-0.0,-0.0,-0.0,-0.04628872126340866,0.8610954284667969,0.002791923237964511,0.017998680472373962,1.1731375455856323,13.406939506530762,0.0013424890348687768,-0.08727987855672836,-0.027253303676843643,0.08698263019323349,-0.05015753209590912,0.03017505444586277,-0.07634305208921432,0.11907874792814255,-0.03379303961992264,-0.14203611016273499,-6.154016591608524e-05,13.458179473876953,7.03679084777832,6.421389102935791,1843.0,1792.0,0.0,0.0,-0.16589461266994476,0.0441313274204731,-0.0041254847310483456,0.16415917873382568,-0.05007234588265419,0.02044447883963585,-0.08551953732967377,0.13818670809268951,0.28407222032546997,-0.13469159603118896,0.08408761024475098,-6.15401950199157e-05,0.4311693012714386,0.3844395577907562,0.8602246046066284,2,0.0,0,0,0,0,0,0.0,0.0,0,641000158,7,6
827477062,5,428,60,5,7939281,7940,5009,-26,-5083,12658,1687,-268,940,58,24.796875,-0.15708410739898682,-0.024296358227729797,1.301684856414795,-4.231100559234619,6.996850967407227,23.108673095703125,-0.06025177240371704,-0.23408713936805725,1.2469905614852905,1582,1500,1354,1500,2000,1503,1000,1000,1397,1426,1543,1852,1784,1489,1489,159,134,242,243,3,89.00999999999999,-0.99,89.00999999999999,-0.99,1,1,1,1,1,1,1,0,1,1,0,0,stabilized_mix,-0.12327151000499725,0.4155447483062744,-1.798937439918518,0.006874410901218653,0.00037331704515963793,-0.059082966297864914,0.0,0.13120000064373016,-0.006874410901218653,0.1308266818523407,-0.04621171951293945,0.879453718662262,-0.04621171951293945,0.879453718662262,-0.0,-0.0,0.0,0.0,1.0,-0.04621171951293945,0.879453718662262,0.002791923237964511,-0.0,-0.0,-0.0,-0.04621171951293945,0.879453718662262,0.002791923237964511,0.017780005931854248,1.2174007892608643,13.405220031738281,0.0013263486325740814,-0.09056691080331802,-0.023890532553195953,0.08768970519304276,-0.04429726302623749,0.026052484288811684,-0.06685154139995575,0.11608509719371796,-0.036311838775873184,-0.20166121423244476,-8.329062256962061e-05,13.460397720336914,7.146651744842529,6.313745498657227,1852.0,1784.0,0.0,0.0,-0.16575203835964203,0.038100991398096085,-0.003101259469985962,0.16551479697227478,-0.04391664266586304,0.021227188408374786,-0.07384663820266724,0.12211808562278748,0.4033224284648895,-0.13134220242500305,0.07368866354227066,-8.32905643619597e-05,0.4403334856033325,0.3748178482055664,0.8603664040565491,2,0.0,0,0,0,0,0,0.0,0.0,0,930577831,7,6
827477062,5,428,61,5,7943306,7944,5013,-24,5175,10026,478,-333,261,274,24.8125,0.13372570276260376,-0.08227838575839996,1.1071372032165527,-6.154019355773926,7.911857604980469,13.871161460876465,-0.015264585614204407,-0.17147308588027954,1.3257255554199219,1581,1500,1364,1500,2000,1503,1000,1000,1406,1420,1548,1840,1794,1489,1489,163,138,242,243,3,89.00999999999999,-0.99,89.00999999999999,-0.99,1,1,1,1,1,1,1,0,1,1,0,0,stabilized_mix,0.08447705209255219,0.26408109068870544,-1.7262405157089233,0.006824558600783348,0.0005298304022289813,-0.0662991851568222,0.0,0.12960000336170197,-0.006824558600783348,0.12907017767429352,-0.0416741669178009,0.7881669998168945,-0.0416741669178009,0.7881669998168945,-0.0,-0.0,0.0,0.0,1.0,-0.0416741669178009,0.7881669998168945,0.006264811847358942,-0.0,-0.0,0.0,-0.0416741669178009,0.7881669998168945,0.006264811847358942,0.008082490414381027,1.082024335861206,13.401453971862793,0.0006031054072082043,-0.08056454360485077,-0.02669723518192768,0.08561403304338455,-0.050207868218421936,0.03794082999229431,-0.07575581967830658,0.12526020407676697,-0.039060208946466446,-0.12104871869087219,-5.603814497590065e-05,13.445067405700684,7.002724647521973,6.442343235015869,1840.0,1794.0,0.0,0.0,-0.1625438928604126,0.04411919787526131,-0.003952764440327883,0.16142286360263824,-0.04896380007266998,0.023092910647392273,-0.10740789771080017,0.13808795809745789,0.24209743738174438,-0.14151014387607574,0.08329640328884125,-5.603812314802781e-05,0.3946339786052704,0.40429508686065674,0.8593865036964417,2,0.0,0,0,0,0,0,0.0,0.0,0,2665625804,7,6
827477062,5,428,73,16,7991553,7992,5061,-18,-3533,7911,8317,-146,373,54,24.859375,-0.173770934343338,0.057793159037828445,1.197725534439087,-2.0587615966796875,7.060369968414307,10.160568237304688,0.09864163398742676,0.09339725971221924,1.9529391527175903,1580,1500,1367,1500,2000,1503,1000,1000,1408,1433,1541,1839,1796,1489,1489,211,186,242,243,3,89.00999999999999,-0.99,89.00999999999999,-0.99,1,1,1,1,1,1,1,0,1,1,0,0,stabilized_mix,0.06330597400665283,0.005802050232887268,-1.78421950340271,0.006016726605594158,0.000849359086714685,-0.1534305214881897,0.0,0.12800000607967377,-0.006016726605594158,0.12715063989162445,-0.04941010847687721,1.0441769361495972,-0.04941010847687721,1.0441769361495972,-0.0,-0.0,0.0,0.0,1.0,-0.04941010847687721,1.0441769361495972,0.01399528980255127,-0.0,-0.0,0.0,-0.04941010847687721,1.0441769361495972,0.01399528980255127,-0.04068963602185249,1.4058059453964233,13.39353084564209,-0.0030379972886294127,-0.1045781672000885,-0.020532555878162384,0.09097817540168762,-0.044620826840400696,0.012668514624238014,-0.06489092856645584,0.1046857088804245,-0.06095409393310547,-0.08866768330335617,-5.2367569878697395e-05,13.467167854309082,6.995421886444092,6.47174596786499,1839.0,1796.0,0.0,0.0,-0.17519257962703705,0.03645215556025505,-0.0031663619447499514,0.1717917025089264,-0.03781437873840332,0.03388364613056183,-0.03593216836452484,0.12322670221328735,0.17733536660671234,-0.1185547262430191,0.07165656983852386,-5.23676244483795e-05,0.5226726531982422,0.33815550804138184,0.8607991337776184,2,0.0,0,0,0,0,0,0.0,0.0,0,2227512913,8,7
827477062,5,428,74,16,7995573,7996,5065,-42,1311,9793,125,-373,209,97,24.671875,0.08966316282749176,-0.0391542911529541,1.1657716035842896,-2.604959487915039,7.567499160766602,6.874274253845215,0.11650685220956802,0.10840529203414917,1.9846770763397217,1580,1500,1367,1500,2000,1503,1000,1000,1408,1432,1544,1835,1800,1489,1489,215,190,242,243,3,89.00999999999999,-0.99,89.00999999999999,-0.99,1,1,1,1,1,1,1,0,1,1,0,0,stabilized_mix,0.13294239342212677,-0.010456733405590057,-1.6860716342926025,0.005981368012726307,0.0005793399177491665,-0.16016945242881775,0.0,0.12800000607967377,-0.005981368012726307,0.12742066383361816,-0.04783784598112106,1.0190863609313965,-0.04783784598112106,1.0190863609313965,-0.0,-0.0,0.0,0.0,1.0,-0.04783784598112106,1.0190863609313965,0.01399528980255127,-0.0,-0.0,0.0,-0.04783784598112106,1.0190863609313965,0.01399528980255127,-0.04244564473628998,1.3672873973846436,13.393890380859375,-0.0031690197065472603,-0.10173001885414124,-0.022227123379707336,0.09031664580106735,-0.04785417020320892,0.016033679246902466,-0.06986676901578903,0.10714007914066315,-0.06206195801496506,-0.059989359229803085,-4.271790385246277e-05,13.4635648727417,6.945372104644775,6.518192768096924,1835.0,1800.0,0.0,0.0,-0.1742958277463913,0.03975021839141846,-0.0037098063621670008,0.1705009937286377,-0.040911950170993805,0.034716151654720306,-0.04546511918306351,0.13207776844501495,0.11997871845960617,-0.12128927558660507,0.07710199058055878,-4.2717958422144875e-05,0.510104238986969,0.34604787826538086,0.8605688810348511,2,0.0,0,0,0,0,0,0.0,0.0,0,2327659086,8,7
827477062,5,428,75,16,7999610,8000,5069,-4,1011,8775,-4383,-105,231,51,24.96875,-0.017173565924167633,0.008912427350878716,1.1199860572814941,-1.700981616973877,4.510072708129883,8.180542945861816,0.1363292932510376,0.08381825685501099,2.0166971683502197,1580,1500,1367,1500,2000,1503,1000,1000,1408,1434,1526,1837,1799,1489,1489,219,194,242,243,3,89.00999999999999,-0.99,89.00999999999999,-0.99,1,1,1,1,1,1,1,0,1,1,0,0,stabilized_mix,-0.015357118099927902,-0.06937709450721741,-1.6402348279953003,0.005966717842966318,0.00024832409690134227,-0.16679711639881134,0.0,0.12800000607967377,-0.005966717842966318,0.1277516782283783,-0.05067728832364082,1.0850368738174438,-0.05067728832364082,1.0850368738174438,-0.0,-0.0,0.0,0.0,1.0,-0.05067728832364082,1.0850368738174438,0.01399528980255127,-0.0,-0.0,0.0,-0.05067728832364082,1.0850368738174438,0.01399528980255127,-0.03662637621164322,1.4528976678848267,13.3945951461792,-0.0027344077825546265,-0.10804612189531326,-0.012083683162927628,0.09243066608905792,-0.028480486944317818,0.010463418439030647,-0.04037840664386749,0.10344653576612473,-0.06317967176437378,-0.07138870656490326,-4.7098961658775806e-05,13.473211288452148,6.972100257873535,6.501110553741455,1837.0,1799.0,0.0,0.0,-0.17835190892219543,0.020687803626060486,-0.0004483701486606151,0.1746053397655487,-0.022268909960985184,0.03362535685300827,-0.029687728732824326,0.07871561497449875,0.14277741312980652,-0.11720754951238632,0.04463290050625801,-4.709892891696654e-05,0.5431098341941833,0.33416298031806946,0.8611854314804077,2,0.0,0,0,0,0,0,0.0,0.0,0,2365633156,8,7
827477062,5,428,76,16,8003619,8004,5073,-4,-4811,9831,6820,-230,384,10,24.96875,-0.10281908512115479,0.053028371185064316,1.1894924640655518,-1.0543676614761353,8.171300888061523,9.763585090637207,0.1290455162525177,0.11828380823135376,2.052013874053955,1580,1500,1377,1500,2000,1503,1000,1000,1417,1437,1548,1840,1797,1489,1489,223,198,242,243,3,89.00999999999999,-0.99,89.00999999999999,-0.99,1,1,1,1,1,1,1,0,1,1,0,0,stabilized_mix,0.03313826024532318,-0.030634906142950058,-1.6388636827468872,0.0059668198227882385,-2.2242074919631705e-05,-0.1731703281402588,0.0,0.12800000607967377,-0.0059668198227882385,0.12802225351333618,-0.051182523369789124,1.0981565713882446,-0.051182523369789124,1.0981565713882446,-0.0,-0.0,0.0,0.0,1.0,-0.051182523369789124,1.0981565713882446,0.01399528980255127,-0.0,-0.0,0.0,-0.051182523369789124,1.0981565713882446,0.01399528980255127,-0.04381445422768593,1.4725584983825684,13.394427299499512,-0.0032710840459913015,-0.10949783027172089,-0.02400078810751438,0.0915486291050911,-0.051588453352451324,0.00648465845733881,-0.07548976689577103,0.09915139526128769,-0.06441245228052139,-0.08520334959030151,-5.236547440290451e-05,13.475200653076172,6.999427795410156,6.475772857666016,1840.0,1797.0,0.0,0.0,-0.17714910209178925,0.043072499334812164,-0.004418062977492809,0.17296937108039856,-0.04424864798784256,0.03623273968696594,-0.018402187153697014,0.14261610805988312,0.17040669918060303,-0.11237343400716782,0.08343680202960968,-5.236552533460781e-05,0.5496743321418762,0.32033345103263855,0.8613125681877136,2,0.0,0,0,0,0,0,0.0,0.0,0,4168528164,8,7
827477062,5,428,77,16,8007639,8008,5077,-16,1523,10049,1617,-367,142,61,24.875,0.02429359033703804,-0.050266459584236145,1.1562069654464722,-1.467043161392212,7.340216159820557,6.262968063354492,0.13794933259487152,0.10649639368057251,2.08341121673584,1580,1500,1377,1500,2000,1503,1000,1000,1417,1436,1543,1835,1801,1489,1489,227,202,242,243,3,89.00999999999999,-0.99,89.00999999999999,-0.99,1,1,1,1,1,1,1,0,1,1,0,0,stabilized_mix,-0.006541114300489426,-0.03587961941957474,-1.5566424131393433,0.005578550975769758,-0.000434567395132035,-0.17935332655906677,0.0,0.12800000607967377,-0.005578550975769758,0.12843456864356995,-0.04714858531951904,1.085498332977295,-0.04714858531951904,1.085498332977295,-0.0,-0.0,0.0,0.0,1.0,-0.04714858531951904,1.085498332977295,0.01399528980255127,-0.0,-0.0,0.0,-0.04714858531951904,1.085498332977295,0.01399528980255127,-0.0353543683886528,1.4529927968978882,13.394633293151855,-0.002639436861500144,-0.10805287957191467,-0.021742962300777435,0.09155341982841492,-0.046353742480278015,0.009022914804518223,-0.06800202280282974,0.10124624520540237,-0.06550842523574829,-0.05465470626950264,-4.2057130485773087e-05,13.47325611114502,6.946913719177246,6.526342868804932,1835.0,1801.0,0.0,0.0,-0.17717672884464264,0.038673948496580124,-0.0036115716211497784,0.1729549765586853,-0.04007416218519211,0.03635024651885033,-0.0256047323346138,0.12811094522476196,0.10930941253900528,-0.11472417414188385,0.0751471146941185,-4.2057094105985016e-05,0.5432608723640442,0.32708168029785156,0.8611882925033569,2,0.0,0,0,0,0,0,0.0,0.0,0,1820630036,8,7
827477062,5,428,78,16,8011659,8012,5081,-26,1474,8208,-2878,-114,228,8,24.796875,-0.05830000340938568,0.009280137717723846,1.1092619895935059,-0.26991939544677734,5.623446464538574,7.711585521697998,0.14494696259498596,0.07316404581069946,2.113079786300659,1580,1500,1377,1500,2000,1503,1000,1000,1417,1439,1533,1837,1799,1489,1489,231,206,242,243,3,89.00999999999999,-0.99,89.00999999999999,-0.99,1,1,1,1,1,1,1,0,1,1,0,0,stabilized_mix,-0.13645753264427185,-0.062369126826524734,-1.5143498182296753,0.005328198429197073,-0.0011020097881555557,-0.18540409207344055,0.0,0.12800000607967377,-0.005328198429197073,0.12910202145576477,-0.04766147583723068,1.1548354625701904,-0.04766147583723068,1.1548354625701904,-0.0,-0.0,0.0,0.0,1.0,-0.04766147583723068,1.1548354625701904,0.02285701036453247,-0.0,-0.0,0.0,-0.04766147583723068,1.1548354625701904,0.02285701036453247,-0.02398521639406681,1.5461375713348389,13.382959365844727,-0.0017922187689691782,-0.11502020806074142,-0.016522634774446487,0.09336064010858536,-0.035491250455379486,0.0016598138026893139,-0.051998309791088104,0.09562084823846817,-0.0665440559387207,-0.06729628145694733,-4.6844128519296646e-05,13.47199821472168,6.970219612121582,6.501778602600098,1837.0,1799.0,0.0,0.0,-0.18047457933425903,0.028452498838305473,-0.001864660414867103,0.1763414442539215,-0.03046686202287674,0.03594158589839935,-0.004710982087999582,0.09814765304327011,0.13459256291389465,-0.10835834592580795,0.05750706419348717,-4.6844117605360225e-05,0.5779092311859131,0.3089613914489746,0.8611078858375549,2,0.0,0,0,0,0,0,0.0,0.0,0,1798263957,8,7
827477062,5,428,79,16,8015686,8016,5085,-32,-3208,10456,4097,-283,368,-21,24.75,-0.10008203983306885,0.044101130217313766,1.1740833520889282,0.11711335182189941,8.791898727416992,9.62523078918457,0.14175179600715637,0.08529287576675415,2.1490607261657715,1580,1500,1377,1500,2000,1503,1000,1000,1417,1441,1553,1840,1796,1489,1489,235,210,242,243,3,89.00999999999999,-0.99,89.00999999999999,-0.99,1,1,1,1,1,1,1,0,1,1,0,0,stabilized_mix,-0.12542621791362762,-0.053587641566991806,-1.4915257692337036,0.004741027019917965,-0.0014308923855423927,-0.19122496247291565,0.0,0.12800000607967377,-0.004741027019917965,0.12943090498447418,-0.04212901368737221,1.1501296758651733,-0.04212901368737221,1.1501296758651733,-0.0,-0.0,0.0,0.0,1.0,-0.04212901368737221,1.1501296758651733,0.02285701036453247,-0.0,-0.0,0.0,-0.04212901368737221,1.1501296758651733,0.02285701036453247,-0.018508855253458023,1.5401761531829834,13.382863998413086,-0.0013830255484208465,-0.11458149552345276,-0.027576876804232597,0.09184103459119797,-0.05548810958862305,-0.0007202513515949249,-0.08314528316259384,0.09227246791124344,-0.06780003011226654,-0.08399598300457001,-5.312857683748007e-05,13.471211433410645,7.001248359680176,6.4699625968933105,1840.0,1796.0,0.0,0.0,-0.17809058725833893,0.048908960074186325,-0.005429841578006744,0.17347189784049988,-0.05086123198270798,0.038306280970573425,0.0020440134685486555,0.15344758331775665,0.16799196600914001,-0.10457119345664978,0.09191316366195679,-5.312860230333172e-05,0.5754504799842834,0.2981805205345154,0.8610576391220093,2,0.0,0,0,0,0,0,0.0,0.0,0,1633171283,8,7
827477062,5,428,80,16,8019709,8020,5089,-20,1177,10742,-949,-348,268,7,24.84375,0.034209609031677246,-0.052046943455934525,1.1300665140151978,-0.0001768842339515686,6.989277362823486,8.630817413330078,0.1424855887889862,0.0519183874130249,2.1865739822387695,1580,1500,1377,1500,2000,1503,1000,1000,1417,1441,1543,1839,1797,1489,1489,239,214,242,243,3,89.00999999999999,-0.99,89.00999999999999,-0.99,1,1,1,1,1,1,1,0,1,1,0,0,stabilized_mix,-0.1898445338010788,-0.04630149155855179,-1.3821691274642944,0.0036324425600469112,-0.0016803829930722713,-0.1967574805021286,0.0,0.12800000607967377,-0.0036324425600469112,0.12968039512634277,-0.032354749739170074,1.1550840139389038,-0.032354749739170074,1.1550840139389038,-0.0,-0.0,0.0,0.0,1.0,-0.032354749739170074,1.1550840139389038,0.02285701036453247,-0.0,-0.0,0.0,-0.032354749739170074,1.1550840139389038,0.02285701036453247,0.0039245132356882095,1.5462614297866821,13.38292121887207,0.00029324786737561226,-0.11502984166145325,-0.022826336324214935,0.09252653270959854,-0.04410550743341446,1.1984215007032617e-06,-0.06696420162916183,0.09335105121135712,-0.0691094845533371,-0.07531809061765671,-5.054962821304798e-05,13.471952438354492,6.988724708557129,6.4832282066345215,1839.0,1797.0,0.0,0.0,-0.17915289103984833,0.03955523669719696,-0.003731783479452133,0.17477186024188995,-0.04209719970822334,0.03804317116737366,-3.0872122351865983e-06,0.12198590487241745,0.15063618123531342,-0.10579507797956467,0.07405266165733337,-5.054964640294202e-05,0.5777685642242432,0.30165380239486694,0.8611049652099609,2,0.0,0,0,0,0,0,0.0,0.0,0,3916735669,8,7
827477062,5,428,92,27,8067973,8068,5137,-16,118,11169,-2397,-161,368,-208,24.875,0.07387536764144897,-0.03718123584985733,1.0848546028137207,5.134654998779297,2.520824909210205,9.18406867980957,0.0711723268032074,0.31490558385849,2.6691501140594482,1581,1500,1384,1500,2000,1503,1000,1000,1423,1457,1513,1842,1794,1489,1489,287,262,242,243,0,,,,,1,1,1,1,1,1,1,0,1,1,0,0,stabilized_mix,0.15001705288887024,-0.1217225044965744,-0.689197301864624,0.004914561752229929,-0.0049512870609760284,-0.24359068274497986,0.0,0.12960000336170197,-0.004914561752229929,0.1345512866973877,-0.05206478387117386,1.4254341125488281,-0.05206478387117386,1.4254341125488281,-0.0,-0.0,0.0,0.0,1.0,-0.05206478387117386,1.4254341125488281,0.06589099764823914,-0.0,-0.0,0.0,-0.05206478387117386,1.4254341125488281,0.06589099764823914,-0.05356281250715256,1.9332212209701538,13.322516441345215,-0.004020450636744499,-0.1441023349761963,-0.0035077796783298254,0.09917537122964859,-0.01588268019258976,-0.03161315619945526,-0.020045995712280273,0.06777193397283554,-0.08595456928014755,-0.08014611899852753,-5.8135250583291054e-05,13.462156295776367,7.021754264831543,6.440402030944824,1842.0,1794.0,0.0,0.0,-0.18989573419094086,0.007752288598567247,0.0019017115700989962,0.1871519684791565,-0.0064782616682350636,0.044052764773368835,0.08961663395166397,0.043996695429086685,0.16029223799705505,-0.07680173963308334,0.02221321500837803,-5.8135236031375825e-05,0.713192343711853,0.21914437413215637,0.8604788184165955,2,0.0,0,0,0,0,0,0.0,0.0,0,2692959692,9,8
827477062,5,428,93,27,8071994,8072,5141,-16,3489,5093,-749,64,111,-109,24.875,-0.021147746592760086,0.005922667682170868,0.9950513243675232,5.349527835845947,1.7117624282836914,8.821786880493164,0.08093269914388657,0.29097455739974976,2.7126717567443848,1580,1500,1384,1500,2000,1503,1000,1000,1423,1458,1509,1841,1794,1489,1489,291,266,242,243,0,,,,,1,1,1,1,1,1,1,0,1,1,0,0,stabilized_mix,0.05472087860107422,-0.19340616464614868,-0.6563565731048584,0.003795991651713848,-0.004415552131831646,-0.24614769220352173,0.0,0.12800000607967377,-0.003795991651713848,0.1324155628681183,-0.041177041828632355,1.4363783597946167,-0.041177041828632355,1.4363783597946167,-0.0,-0.0,0.0,0.0,1.0,-0.041177041828632355,1.4363783597946167,0.07653921842575073,-0.0,-0.0,0.0,-0.041177041828632355,1.4363783597946167,0.07653921842575073,-0.03086967021226883,1.9451961517333984,13.308416366577148,-0.0023195557296276093,-0.14513476192951202,-0.002112817019224167,0.0994318351149559,-0.010794182308018208,-0.032967373728752136,-0.01356493216007948,0.0665639191865921,-0.08747376501560211,-0.07698461413383484,-5.756039172410965e-05,13.449858665466309,7.012731075286865,6.437127113342285,1841.0,1794.0,0.0,0.0,-0.1903090924024582,0.0047066290862858295,0.0025384356267750263,0.18746572732925415,-0.0038997780065983534,0.044422611594200134,0.09336687624454498,0.02987588942050934,0.15396922826766968,-0.07536567747592926,0.015018348582088947,-5.756043174187653e-05,0.7184842228889465,0.2152433544397354,0.8596927523612976,2,0.0,0,0,0,0,0,0.0,0.0,0,705520829,9,8
827477062,5,428,94,27,8076017,8076,5145,-22,-2913,8746,1420,-156,530,-300,24.828125,0.006529800593852997,0.07176020741462708,1.1101394891738892,7.782253265380859,3.883671522140503,12.927068710327148,0.04864449054002762,0.31551867723464966,2.751990556716919,1580,1500,1384,1500,2000,1503,1000,1000,1423,1466,1522,1847,1789,1489,1489,295,270,242,243,0,,,,,1,1,1,1,1,1,1,0,1,1,0,0,stabilized_mix,0.12344135344028473,-0.15193477272987366,-0.6613985896110535,0.003967651166021824,-0.00502143707126379,-0.2484467625617981,0.0,0.12800000607967377,-0.003967651166021824,0.13302144408226013,-0.0463491752743721,1.553925633430481,-0.0463491752743721,1.553925633430481,-0.0,-0.0,0.0,0.0,1.0,-0.0463491752743721,1.553925633430481,0.07653921842575073,-0.0,-0.0,0.0,-0.0463491752743721,1.553925633430481,0.07653921842575073,-0.03456886112689972,2.113511085510254,13.307452201843262,-0.0025977010373026133,-0.1575055569410324,-0.009219457395374775,0.10128939151763916,-0.024427425116300583,-0.04788053035736084,-0.03504783660173416,0.05396372079849243,-0.08884625136852264,-0.11280995607376099,-7.05796992406249e-05,13.474286079406738,7.090041160583496,6.384244441986084,1847.0,1789.0,0.0,0.0,-0.1940254420042038,0.01802949793636799,-8.458016236545518e-05,0.1913031041622162,-0.0170549675822258,0.04643126577138901,0.13582594692707062,0.06778285652399063,0.22561991214752197,-0.06122608482837677,0.038898296654224396,-7.057967013679445e-05,0.7773084044456482,0.17454388737678528,0.8612541556358337,2,0.0,0,0,0,0,0,0.0,0.0,0,1949790652,9,8
827477062,5,428,95,27,8080047,8080,5149,-2,-290,12620,-2921,-65,392,-258,24.984375,0.13797667622566223,-0.05144764482975006,1.0690515041351318,6.418837070465088,0.727719783782959,8.722921371459961,0.018227100372314453,0.3528589606285095,2.7894530296325684,1580,1500,1384,1500,2000,1503,1000,1000,1423,1461,1502,1841,1794,1489,1489,299,274,242,243,0,,,,,1,1,1,1,1,1,1,0,1,1,0,0,stabilized_mix,0.2224350869655609,-0.09787502139806747,-0.545511782169342,0.003522696439176798,-0.004798860289156437,-0.25056374073028564,0.0,0.12800000607967377,-0.003522696439176798,0.13279886543750763,-0.03925490751862526,1.4798344373703003,-0.03925490751862526,1.4798344373703003,-0.0,-0.0,0.0,0.0,1.0,-0.03925490751862526,1.4798344373703003,0.07653921842575073,-0.0,-0.0,0.0,-0.03925490751862526,1.4798344373703003,0.07653921842575073,-0.037093762308359146,2.0189154148101807,13.30630874633789,-0.002787675242871046,-0.1505771428346634,0.00174849689938128,0.10023956745862961,-0.004583962261676788,-0.03953233361244202,-0.003615637542679906,0.06067248433828354,-0.09015394002199173,-0.07612185180187225,-5.819648504257202e-05,13.458648681640625,7.0203070640563965,6.438342094421387,1841.0,1794.0,0.0,0.0,-0.1907758116722107,-0.001411169534549117,0.0037408152129501104,0.1891053020954132,0.0032303540501743555,0.04523994028568268,0.11202984303236008,0.012701106257736683,0.1522437036037445,-0.06874918192625046,0.0040061078034341335,-5.8196528698317707e-05,0.7401775121688843,0.19621850550174713,0.8602546453475952,2,0.0,0,0,0,0,0,0.0,0.0,0,3747151080,9,8
827477062,5,428,97,28,8087148,8088,5156,-30,-3974,11722,2889,-183,604,-370,24.765625,0.054752908647060394,0.03838380426168442,1.1075440645217896,8.389962196350098,1.8256527185440063,11.601649284362793,-0.0013109445571899414,0.40929073095321655,2.8629443645477295,1580,1500,1385,1500,2000,1503,1000,1000,1423,1468,1508,1846,1790,1489,1489,307,282,242,243,0,,,,,1,1,1,1,1,1,1,0,1,1,0,0,stabilized_mix,0.32301002740859985,-0.11683782935142517,-0.501289963722229,0.004843918140977621,-0.005945705343037844,-0.25398361682891846,0.0,0.12800000607967377,-0.004843918140977621,0.13394571840763092,-0.05704973638057709,1.577559232711792,-0.05704973638057709,1.577559232711792,-0.0,-0.0,0.0,0.0,1.0,-0.05704973638057709,1.577559232711792,0.08745063096284866,-0.0,-0.0,0.0,-0.05704973638057709,1.577559232711792,0.08745063096284866,-0.06511960178613663,2.1580312252044678,13.290549278259277,-0.004899653140455484,-0.1609666347503662,-0.00018815217481460422,0.10208753496408463,-0.011486871168017387,-0.051660358905792236,-0.01302803959697485,0.05058417469263077,-0.09271927177906036,-0.10124348849058151,-6.78870128467679e-05,13.464770317077637,7.071820259094238,6.392950057983398,1846.0,1790.0,0.0,0.0,-0.19420276582241058,0.0029046395793557167,0.0028598199132829905,0.19266675412654877,-0.00034662033431231976,0.047056544572114944,0.14643245935440063,0.03186365216970444,0.20248697698116302,-0.05735386535525322,0.014455239288508892,-6.78869619150646e-05,0.7892952561378479,0.1636204570531845,0.8606458902359009,2,0.0,0,0,0,0,0,0.0,0.0,0,4265324415,9,8
827477062,5,428,98,28,8091169,8092,5160,-28,5421,5382,-3336,121,45,-152,24.78125,0.07150908559560776,-0.08351912349462509,0.922486424446106,6.865049362182617,-0.7560133934020996,6.526365280151367,0.009079352021217346,0.41182416677474976,2.9080705642700195,1580,1500,1385,1500,2000,1503,1000,1000,1423,1463,1491,1838,1795,1489,1489,311,286,242,243,0,,,,,1,1,1,1,1,1,1,0,1,1,0,0,stabilized_mix,0.3076770007610321,-0.16100618243217468,-0.4046247601509094,0.005766600836068392,-0.006764576770365238,-0.25575608015060425,0.0,0.12800000607967377,-0.005766600836068392,0.13476458191871643,-0.0636722669005394,1.488011121749878,-0.0636722669005394,1.488011121749878,-0.0,-0.0,0.0,0.0,1.0,-0.0636722669005394,1.488011121749878,0.09853304177522659,-0.0,-0.0,0.0,-0.0636722669005394,1.488011121749878,0.09853304177522659,-0.07915036380290985,2.033804178237915,13.275673866271973,-0.005961989052593708,-0.15201324224472046,0.009624523110687733,0.10018204897642136,0.004770916886627674,-0.04237019270658493,0.013771060854196548,0.0576213002204895,-0.094294473528862,-0.05695328116416931,-5.293672438710928e-05,13.430789947509766,6.980078220367432,6.450711250305176,1838.0,1795.0,0.0,0.0,-0.18984848260879517,-0.014971296302974224,0.0062568276189267635,0.1886080503463745,0.017746590077877045,0.04617221653461456,0.11981771141290665,-0.013194922357797623,0.11390656232833862,-0.06516161561012268,-0.015234651044011116,-5.293671347317286e-05,0.7446863651275635,0.18636491894721985,0.8584739565849304,2,0.0,0,0,0,0,0,0.0,0.0,0,953794944,9,8
827477062,5,428,99,28,8095190,8096,5164,-22,-1383,6242,-607,-48,313,-323,24.828125,0.005994291044771671,0.11440088599920273,1.0768414735794067,9.946475982666016,1.8212460279464722,12.481354713439941,-0.006640598177909851,0.44321519136428833,2.9514780044555664,1580,1500,1385,1500,2000,1503,1000,1000,1423,1473,1507,1848,1789,1489,1489,315,290,242,243,0,,,,,1,1,1,1,1,1,1,0,1,1,0,0,stabilized_mix,0.3007880449295044,-0.24442645907402039,-0.48971351981163025,0.006827540695667267,-0.0074480208568274975,-0.2572459876537323,0.0,0.12800000607967377,-0.006827540695667267,0.13544802367687225,-0.08345840871334076,1.655687928199768,-0.08345840871334076,1.655687928199768,-0.0,-0.0,0.0,0.0,1.0,-0.08345840871334076,1.655687928199768,0.09853304177522659,-0.0,-0.0,0.0,-0.08345840871334076,1.655687928199768,0.09853304177522659,-0.10009029507637024,2.2677361965179443,13.27493667602539,-0.007539651356637478,-0.16919046640396118,0.002088848501443863,0.1035567969083786,-0.011453315615653992,-0.061240531504154205,-0.011088995262980461,0.04249003529548645,-0.09580967575311661,-0.10892036557197571,-7.165549322962761e-05,13.467612266540527,7.092083930969238,6.375528812408447,1848.0,1789.0,0.0,0.0,-0.1969033181667328,-0.0009047371568158269,0.003564044600352645,0.1954704076051712,0.0038662671577185392,0.04831136018037796,0.1735987514257431,0.03178673982620239,0.21784073114395142,-0.04819347336888313,0.012310360558331013,-7.165550778154284e-05,0.8288950324058533,0.13745847344398499,0.8608275651931763,2,0.0,0,0,0,0,0,0.0,0.0,0,1269027448,9,8
827477062,5,428,100,28,8099211,8100,5168,-22,-5150,14393,1875,-114,572,-401,24.828125,0.05221063271164894,0.047287438064813614,1.1188256740570068,9.374297142028809,0.227003812789917,10.108351707458496,-0.046265050768852234,0.4645574688911438,2.9824535846710205,1580,1500,1385,1500,2000,1503,1000,1000,1423,1472,1496,1844,1791,1489,1489,319,294,242,243,0,,,,,1,1,1,1,1,1,1,0,1,1,0,0,stabilized_mix,0.33900463581085205,-0.15510527789592743,-0.3716943562030792,0.007766677998006344,-0.008268455974757671,-0.2585449516773224,0.0,0.12800000607967377,-0.007766677998006344,0.1362684667110443,-0.09180902689695358,1.610814094543457,-0.09180902689695358,1.610814094543457,-0.0,-0.0,0.0,0.0,1.0,-0.09180902689695358,1.610814094543457,0.09853304177522659,-0.0,-0.0,0.0,-0.09180902689695358,1.610814094543457,0.09853304177522659,-0.11840111017227173,2.2162487506866455,13.273268699645996,-0.008920031599700451,-0.16543814539909363,0.008749675005674362,0.10246863216161728,-0.001429717056453228,-0.057757921516895294,0.0060028936713933945,0.04461124539375305,-0.09689092636108398,-0.08821200579404831,-6.478605791926384e-05,13.457540512084961,7.052700519561768,6.404839992523193,1844.0,1791.0,0.0,0.0,-0.19372016191482544,-0.012701991014182568,0.005839169025421143,0.1932831108570099,0.016174934804439545,0.047756560146808624,0.16361235082149506,0.0039619640447199345,0.17642401158809662,-0.05056034028530121,-0.006658155471086502,-6.478602881543338e-05,0.8067141771316528,0.14431722462177277,0.8601837754249573,2,0.0,0,0,0,0,0,0.0,0.0,0,3194820755,9,8
827477062,5,428,112,39,8147422,8148,5216,-24,-6854,16984,-350,56,431,-475,24.8125,0.06049627065658569,0.005036264657974243,1.0299417972564697,13.34354305267334,-4.716238498687744,6.972312927246094,-0.3811429738998413,0.5237715840339661,3.360503673553467,1580,1500,1385,1500,2000,1503,1000,1000,1423,1489,1462,1839,1791,1489,1489,367,342,242,243,0,,,,,1,1,1,1,1,1,1,0,1,1,0,0,stabilized_mix,0.23817919194698334,-0.14047978818416595,-0.005578148178756237,0.012692179530858994,-0.013429392129182816,-0.26653873920440674,0.0,0.12800000607967377,-0.012692179530858994,0.14142939448356628,-0.14962060749530792,1.6672273874282837,-0.14962060749530792,1.6672273874282837,-0.0,-0.0,0.0,0.0,1.0,-0.14962060749530792,1.6672273874282837,0.15295839309692383,-0.0,-0.0,0.0,-0.14962060749530792,1.6672273874282837,0.15295839309692383,-0.1912572830915451,2.374927520751953,13.184473037719727,-0.0145052345469594,-0.1782011240720749,0.03108345717191696,0.10034982115030289,0.029793957248330116,-0.08262517303228378,0.05960588902235031,0.01720094308257103,-0.11008736491203308,-0.06084490939974785,-5.982629954814911e-05,13.398028373718262,6.998145580291748,6.3998823165893555,1839.0,1791.0,0.0,0.0,-0.18223504722118378,-0.05265974998474121,0.013144082389771938,0.18846140801906586,0.05724744498729706,0.05046861991286278,0.23288875818252563,-0.0823138877749443,0.1216898187994957,-0.01941399835050106,-0.06583859771490097,-5.98262959101703e-05,0.8369637727737427,0.19277100265026093,0.8563798666000366,2,0.0,0,0,0,0,0,0.0,0.0,0,3941477900,10,9
827477062,5,428,113,39,8151414,8152,5220,-6,9378,-1940,-1257,286,-155,-422,24.953125,0.025726888328790665,-0.06311251223087311,0.873874306678772,15.437335968017578,-5.794094085693359,4.99168586730957,-0.3450448215007782,0.49017757177352905,3.400052309036255,1580,1500,1385,1500,2000,1503,1000,1000,1423,1497,1456,1837,1793,1489,1489,371,346,242,243,0,,,,,1,1,1,1,1,1,1,0,1,1,0,0,stabilized_mix,0.1554493010044098,-0.3018045723438263,-0.11389193683862686,0.011786483228206635,-0.012732362374663353,-0.266842246055603,0.0,0.12800000607967377,-0.011786483228206635,0.14073236286640167,-0.14805106818675995,1.7677515745162964,-0.14805106818675995,1.7677515745162964,-0.0,-0.0,0.0,0.0,1.0,-0.14805106818675995,1.7677515745162964,0.16904312372207642,-0.0,-0.0,0.0,-0.14805106818675995,1.7677515745162964,0.16904312372207642,-0.17145976424217224,2.50358247756958,13.163365364074707,-0.013024790212512016,-0.1879328191280365,0.03399082273244858,0.10144758224487305,0.03659620136022568,-0.09561126679182053,0.06955278664827347,0.005410873331129551,-0.1114678755402565,-0.04356067627668381,-5.426001735031605e-05,13.400428771972656,6.9715142250061035,6.4289140701293945,1837.0,1793.0,0.0,0.0,-0.18489064276218414,-0.05870642513036728,0.01453445479273796,0.19054755568504333,0.06262180954217911,0.05034139007329941,0.26943233609199524,-0.10112601518630981,0.08712135255336761,-0.006109363399446011,-0.07683456689119339,-5.42599918844644e-05,0.8869702816009521,0.22489619255065918,0.8565332889556885,2,0.0,0,0,0,0,0,0.0,0.0,0,650268250,10,9
