magic,version,size,sequence,dropped_records,timestamp_us,tick_ms,imu_sequence,raw_temperature,raw_accel_x,raw_accel_y,raw_accel_z,raw_gyro_x,raw_gyro_y,raw_gyro_z,temperature_c,accel_x_g,accel_y_g,accel_z_g,gyro_x_dps,gyro_y_dps,gyro_z_dps,roll_deg,pitch_deg,yaw_deg,rc_ch1_us,rc_ch2_us,rc_ch3_us,rc_ch4_us,rc_ch5_us,rc_ch6_us,rc_ch7_us,rc_ch8_us,throttle_us,servo_alpha_us,servo_beta_us,motor_upper_us,motor_lower_us,servo_alpha_feedback_us,servo_beta_feedback_us,servo_alpha_feedback_age_ms,servo_beta_feedback_age_ms,servo_alpha_feedback_sequence,servo_beta_feedback_sequence,servo_feedback_valid_mask,servo_alpha_feedback_deg,servo_alpha_feedback_tilt_deg,servo_beta_feedback_deg,servo_beta_feedback_tilt_deg,rc_armed,rc_link_ok,throttle_over_20,imu_valid,motor_output_reason,rc_link_seen,arm_switch_high,arm_throttle_low,arm_switch_seen_low,arm_switch_prev_high,imu_fault_latched,imu_fault_reason,motor_output_reason_name,acc_nav_m_s2_0,acc_nav_m_s2_1,acc_nav_m_s2_2,vel_est_m_s_0,vel_est_m_s_1,vel_est_m_s_2,vel_ref_m_s_0,vel_ref_m_s_1,vel_err_m_s_0,vel_err_m_s_1,vel_pid_out_m_s2_0,vel_pid_out_m_s2_1,vel_pid_p_m_s2_0,vel_pid_p_m_s2_1,vel_pid_i_m_s2_0,vel_pid_i_m_s2_1,vel_pid_d_m_s2_0,vel_pid_d_m_s2_1,vel_loop_active,ctrl_pos_p_m_s2_0,ctrl_pos_p_m_s2_1,ctrl_pos_p_m_s2_2,ctrl_vel_d_m_s2_0,ctrl_vel_d_m_s2_1,ctrl_vel_d_m_s2_2,ctrl_accel_out_m_s2_0,ctrl_accel_out_m_s2_1,ctrl_accel_out_m_s2_2,ctrl_force_cmd_n_0,ctrl_force_cmd_n_1,ctrl_force_cmd_n_2,ctrl_tilt_ff_rad_0,ctrl_tilt_ff_rad_1,ctrl_tilt_angle_p_rad_0,ctrl_tilt_angle_p_rad_1,ctrl_tilt_rate_d_rad_0,ctrl_tilt_rate_d_rad_1,ctrl_tilt_out_rad_0,ctrl_tilt_out_rad_1,ctrl_yaw_angle_p_rad_s,ctrl_yaw_rate_d_rad_s,ctrl_yaw_torque_cmd,ctrl_total_force_n,ctrl_motor_thrust_cmd_n_0,ctrl_motor_thrust_cmd_n_1,ctrl_motor_cmd_us_0,ctrl_motor_cmd_us_1,ctrl_velocity_integral_m_0,ctrl_velocity_integral_m_1,ctrl_desired_attitude_rpy_rad_0,ctrl_desired_attitude_rpy_rad_1,ctrl_desired_attitude_rpy_rad_2,ctrl_attitude_error_0,ctrl_attitude_error_1,ctrl_attitude_error_2,ctrl_rate_error_rad_s_0,ctrl_rate_error_rad_s_1,ctrl_rate_error_rad_s_2,ctrl_moment_cmd_n_m_0,ctrl_moment_cmd_n_m_1,ctrl_moment_cmd_n_m_2,ctrl_horizontal_command_scale,ctrl_moment_utilization,ctrl_thrust_utilization,ctrl_protection_flags,z_ref_m,record_crc32,sector_seq,sector_index
827477062,4,408,11054,6058,412711814,412712,406498,318,9023,4775,-3334,-26,106,-185,27.484375,0.10324469953775406,-0.032276302576065063,0.8920184969902039,9.283540725708008,1.3676401376724243,12.0421781539917,-0.07258451730012894,-0.16699567437171936,89.59738159179688,1529,1500,1746,1500,2000,1000,1000,1000,1727,1623,1512,1847,1795,1591,1486,196,18,17087,17239,3,98.19,8.19,88.74,-1.26,1,1,1,1,1,1,1,0,1,1,0,0,stabilized_mix,-0.013080243021249771,-0.8426467776298523,0.0055469609797000885,-0.003530931193381548,-0.05470787361264229,-0.13131217658519745,0.0,0.04639999940991402,0.003530931193381548,0.1011078730225563,0.0,0.0,0.0,0.0,0.0,0.0,0.0,0.0,0.0,0.0,0.0,-0.08895000070333481,0.0,0.0,0.0,0.0,0.0,-0.08895000070333481,0.03944024443626404,0.017142614349722862,13.531797409057617,0.002914626384153962,-0.0012668333947658539,-0.010348369367420673,-0.07825572788715363,-0.006534992717206478,-0.1139519065618515,-0.01845928654074669,-0.19285118579864502,-0.07532334327697754,-0.10508783161640167,-6.31439033895731e-05,13.531865119934082,7.08165168762207,6.4502129554748535,1847.0,1795.0,0.0,0.0,0.11280052363872528,0.010546968318521976,1.5273023843765259,-0.11139881610870361,-0.011338939890265465,0.03710762411355972,0.16202835738658905,0.023869823664426804,0.21017566323280334,0.21848763525485992,0.020224742591381073,-6.314391066553071e-05,1.0,0.6202161908149719,0.864934504032135,0,0.048704374581575394,3381338110,1535,516
827477062,4,408,11055,6058,412715849,412716,406502,302,-7110,6361,4577,-121,788,-458,27.359375,-0.11732248961925507,0.19470807909965515,1.0354151725769043,12.641075134277344,2.9557344913482666,13.742371559143066,-0.1028711125254631,-0.17862120270729065,89.6323471069336,1529,1500,1746,1500,2000,1000,1000,1000,1727,1668,1522,1849,1793,1591,1486,200,22,17087,17239,3,98.19,8.19,88.74,-1.26,1,1,1,1,1,1,1,0,1,1,0,0,stabilized_mix,-0.0716681256890297,-0.6978582739830017,-0.08443604409694672,-0.003146718954667449,-0.054459962993860245,-0.13128820061683655,0.0,0.04639999940991402,0.003146718954667449,0.10085996240377426,0.0,0.0,0.0,0.0,0.0,0.0,0.0,0.0,0.0,0.0,0.0,-0.09134776145219803,0.0,0.0,0.0,0.0,0.0,-0.09134776145219803,0.0421961173415184,0.024301400408148766,13.535055160522461,0.003117533167824149,-0.0017954307841137052,-0.01786966249346733,-0.10642581433057785,-0.0143534941598773,-0.1554149091243744,-0.034714676439762115,-0.2635052800178528,-0.07654380798339844,-0.11992481350898743,-6.87639694660902e-05,13.53514289855957,7.111391544342041,6.4237518310546875,1849.0,1793.0,0.0,0.0,0.1535709649324417,0.019019009545445442,1.529051423072815,-0.15140536427497864,-0.01926445960998535,0.03682155907154083,0.22062838077545166,0.0515872985124588,0.23984962701797485,0.29700028896331787,0.03742092847824097,-6.876401312183589e-05,0.6284632682800293,0.8428841829299927,0.8651440143585205,4,0.04929477348923683,968907974,1535,516
827477062,4,408,11056,6058,412719883,412720,406506,342,-917,15426,1178,-121,-18,-371,27.671875,0.05057026445865631,-0.11258886754512787,1.049641728401184,9.442954063415527,2.3625032901763916,4.802260398864746,-0.15593373775482178,-0.11565220355987549,89.6743392944336,1529,1500,1746,1500,2000,1000,1000,1000,1727,1624,1515,1838,1803,1591,1486,204,26,17087,17239,3,98.19,8.19,88.74,-1.26,1,1,1,1,1,1,1,0,1,1,0,0,stabilized_mix,0.0811830386519432,-0.46055224537849426,0.018438003957271576,-0.0028345510363578796,-0.0569448359310627,-0.13116666674613953,0.0,0.04639999940991402,0.0028345510363578796,0.10334483534097672,0.0,0.0,0.0,0.0,0.0,0.0,0.0,0.0,0.0,0.0,0.0,-0.09359128028154373,0.0,0.0,0.0,0.0,0.0,-0.09359128028154373,0.02732701785862446,0.0368448905646801,13.538132667541504,0.0020185192115604877,-0.002721551340073347,-0.012086080387234688,-0.07792975753545761,-0.011287933215498924,-0.11586218327283859,-0.024015169590711594,-0.19452419877052307,-0.07800960540771484,-0.04190762713551521,-4.1970983147621155e-05,13.538209915161133,6.978959560394287,6.5592498779296875,1838.0,1803.0,0.0,0.0,0.1137704998254776,0.01346057839691639,1.5276457071304321,-0.11098828911781311,-0.013245831243693829,0.03823426365852356,0.1648106426000595,0.04123346135020256,0.08381525427103043,0.2204640954732895,0.026315532624721527,-4.197102680336684e-05,1.0,0.625533401966095,0.8653400540351868,0,0.04988517239689827,2959685771,1535,516
827477062,4,408,11057,6058,412723916,412724,406510,332,6663,4485,-4187,-32,259,-220,27.59375,0.0804147720336914,0.05331076681613922,0.9471855163574219,10.567767143249512,1.5086517333984375,14.642151832580566,-0.0817875936627388,-0.13744568824768066,89.72970581054688,1529,1500,1746,1500,2000,1000,1000,1000,1727,1640,1513,1851,1791,1591,1486,208,30,17087,17239,3,98.19,8.19,88.74,-1.26,1,1,1,1,1,1,1,0,1,1,0,0,stabilized_mix,-0.004680085927248001,-0.6339107155799866,-0.05697953701019287,-0.002667616121470928,-0.05921855941414833,-0.13128791749477386,0.0,0.04639999940991402,0.002667616121470928,0.10561855882406235,0.0,0.0,0.0,0.0,0.0,0.0,0.0,0.0,0.0,0.0,0.0,-0.09583479166030884,0.0,0.0,0.0,0.0,0.0,-0.09583479166030884,0.032483864575624466,0.019329607486724854,13.541224479675293,0.0023988820612430573,-0.0014274587156251073,-0.010247700847685337,-0.08898399770259857,-0.007244457490742207,-0.12970873713493347,-0.019681677222251892,-0.2196742594242096,-0.07994222640991211,-0.1277768760919571,-7.270171772688627e-05,13.541276931762695,7.1341471672058105,6.407129764556885,1851.0,1791.0,0.0,0.0,0.1283724009990692,0.011328177526593208,1.5275698900222778,-0.12672187387943268,-0.011173276230692863,0.03922756016254425,0.18444232642650604,0.026330940425395966,0.2555537521839142,0.24859054386615753,0.021459942683577538,-7.27016813470982e-05,1.0,0.7051782011985779,0.865536093711853,0,0.05047557130455971,910886286,1535,516
827477062,4,408,11058,6058,412727948,412728,406514,328,-7865,9852,5332,-69,769,-488,27.5625,-0.12695838510990143,0.17861080169677734,1.0371620655059814,12.762295722961426,2.553651809692383,12.098112106323242,-0.11897335201501846,-0.1606968343257904,89.76252746582031,1529,1500,1746,1500,2000,1000,1000,1000,1727,1669,1519,1848,1794,1591,1486,212,34,17087,17239,3,98.19,8.19,88.74,-1.26,1,1,1,1,1,1,1,0,1,1,0,0,stabilized_mix,-0.09065447747707367,-0.5129931569099426,-0.031414974480867386,-0.00239249924197793,-0.05768613517284393,-0.13118234276771545,0.0,0.04639999940991402,0.00239249924197793,0.10408613085746765,0.0,0.0,0.0,0.0,0.0,0.0,0.0,0.0,0.0,0.0,0.0,-0.09817853569984436,0.0,0.0,0.0,0.0,0.0,-0.09817853569984436,0.03798800706863403,0.028124671429395676,13.54439926147461,0.0028046946972608566,-0.002076468663290143,-0.015101308934390545,-0.1070609837770462,-0.012400067411363125,-0.15680986642837524,-0.029714860022068024,-0.265722393989563,-0.08108782768249512,-0.10557594150304794,-6.533227860927582e-05,13.54448127746582,7.098902225494385,6.445579528808594,1848.0,1794.0,0.0,0.0,0.1548946499824524,0.016568778082728386,1.5286946296691895,-0.15241307020187378,-0.016282767057418823,0.03923143446445465,0.22274407744407654,0.044569630175828934,0.2111518830060959,0.29964905977249146,0.03203586861491203,-6.53323222650215e-05,0.6007397174835205,0.8498150706291199,0.8657408952713013,4,0.051065970212221146,3163915571,1535,516
827477062,4,408,11070,6069,412775342,412776,406561,308,120,15309,-297,-69,-192,-360,27.40625,0.04506481811404228,-0.17036433517932892,1.0582695007324219,9.782864570617676,2.797854423522949,3.002951145172119,-0.4398348331451416,-0.03049933910369873,90.21624755859375,1529,1500,1747,1500,2000,1000,1000,1000,1727,1624,1515,1841,1805,1591,1486,260,82,17087,17239,2,,,88.74,-1.26,1,1,1,1,1,1,1,0,1,1,0,0,stabilized_mix,0.07165984809398651,0.15836188197135925,0.08482383191585541,0.0014971368946135044,-0.05378775671124458,-0.129846453666687,0.0,0.04639999940991402,-0.0014971368946135044,0.1001877561211586,0.0,0.0,0.0,0.0,0.0,0.0,0.0,0.0,0.0,0.0,0.0,-0.13120727241039276,0.0,0.0,-0.0,0.0,0.0,-0.13120727241039276,0.00723394937813282,0.10432066023349762,13.589229583740234,0.000532329548150301,-0.007676564157009125,-0.010372337885200977,-0.07445432990789413,-0.013318057172000408,-0.11959647387266159,-0.024103853851556778,-0.19481420516967773,-0.09692573547363281,-0.026205692440271378,-4.309602081775665e-05,13.589631080627441,7.010295867919922,6.579335689544678,1841.0,1805.0,0.0,0.0,0.11408502608537674,0.013779183849692345,1.5276864767074585,-0.10645262151956558,-0.011408992111682892,0.04758027195930481,0.1707431972026825,0.048831772059202194,0.052411384880542755,0.22162704169750214,0.02651178650557995,-4.3095995351905e-05,1.0,0.626453697681427,0.8686267733573914,0,0.05816755071282387,1485912833,1535,516
827477062,4,408,11071,6069,412779368,412780,406565,312,11679,653,-2397,-57,143,-177,27.4375,0.07293561100959778,-0.04927876591682434,0.8732537627220154,10.133210182189941,0.9525680541992188,11.954081535339355,-0.4199843406677246,-0.08072710037231445,90.2579116821289,1529,1500,1747,1500,2000,1000,1000,1000,1727,1629,1507,1853,1794,1591,1486,264,86,17087,17239,2,,,88.74,-1.26,1,1,1,1,1,1,1,0,1,1,0,0,stabilized_mix,-0.0652737095952034,-0.015031829476356506,0.0716312974691391,0.00143189646769315,-0.05340341106057167,-0.12957251071929932,0.0,0.04639999940991402,-0.00143189646769315,0.09980341047048569,0.0,0.0,0.0,0.0,0.0,0.0,0.0,0.0,0.0,0.0,0.0,-0.1334598958492279,0.0,0.0,-0.0,0.0,0.0,-0.1334598958492279,0.019151493906974792,0.0996350571513176,13.592330932617188,0.0014089916367083788,-0.007330101914703846,-0.005048949271440506,-0.07766131311655045,-0.004540819674730301,-0.12387243658304214,-0.011290330439805984,-0.2023642659187317,-0.09838008880615234,-0.10431904345750809,-7.094466127455235e-05,13.592710494995117,7.151078701019287,6.44163179397583,1853.0,1794.0,0.0,0.0,0.11854016780853271,0.007207900285720825,1.5269660949707031,-0.11105331778526306,-0.005547533743083477,0.0486825592815876,0.1768578737974167,0.016625449061393738,0.20863808691501617,0.23015326261520386,0.012404117733240128,-7.09446903783828e-05,1.0,0.6504065990447998,0.8688236474990845,0,0.058760348707437515,247425463,1535,516
827477062,4,408,11072,6069,412783401,412784,406569,318,-10183,7245,4996,-76,859,-559,27.484375,-0.1700078248977661,0.10456514358520508,1.020115613937378,13.196962356567383,2.2621517181396484,11.719367980957031,-0.5641795992851257,-0.10720822215080261,90.28538513183594,1529,1500,1747,1500,2000,1000,1000,1000,1727,1668,1515,1853,1794,1591,1486,268,90,17087,17239,2,,,88.74,-1.26,1,1,1,1,1,1,1,0,1,1,0,0,stabilized_mix,-0.14750659465789795,0.20526377856731415,0.015209153294563293,0.0014284809585660696,-0.052474766969680786,-0.12915921211242676,0.0,0.04639999940991402,-0.0014284809585660696,0.0988747626543045,0.0,0.0,0.0,0.0,0.0,0.0,0.0,0.0,0.0,0.0,0.0,-0.13571253418922424,0.0,0.0,-0.0,0.0,0.0,-0.13571253418922424,0.025439564138650894,0.13387252390384674,13.595108032226562,0.001871227053925395,-0.00984677392989397,-0.011103375814855099,-0.10081002116203308,-0.010937993414700031,-0.16157957911491394,-0.024250058457255363,-0.2642243504524231,-0.09933900833129883,-0.10227077454328537,-7.056340109556913e-05,13.595789909362793,7.150712013244629,6.445077896118164,1853.0,1794.0,0.0,0.0,0.154239222407341,0.014135753735899925,1.5283052921295166,-0.14408890902996063,-0.012023147195577621,0.048475854098796844,0.2303304374217987,0.0394819937646389,0.20454154908657074,0.29912644624710083,0.026253975927829742,-7.056342292344198e-05,0.6194744110107422,0.8451313972473145,0.8690204620361328,4,0.05935314670205116,3070251113,1535,516
827477062,4,408,11073,6069,412787434,412788,406573,328,1821,15857,-2889,-104,-129,-261,27.5625,0.09373999387025833,-0.17307566106319427,1.0499494075775146,8.731151580810547,2.6027801036834717,4.666043281555176,-0.5897946357727051,-0.060002684593200684,90.33141326904297,1529,1500,1747,1500,2000,1000,1000,1000,1727,1608,1515,1843,1802,1591,1486,272,94,17087,17239,2,,,88.74,-1.26,1,1,1,1,1,1,1,0,1,1,0,0,stabilized_mix,0.014556236565113068,0.2533411979675293,0.06334930658340454,0.0016917346511036158,-0.04912194237112999,-0.12886667251586914,0.0,0.04639999940991402,-0.0016917346511036158,0.095521941781044,0.0,0.0,0.0,0.0,0.0,0.0,0.0,0.0,0.0,0.0,0.0,-0.13458536565303802,0.0,0.0,0.0,0.0,0.0,-0.13458536565303802,0.014236497692763805,0.1399347186088562,13.593521118164062,0.0010472998255863786,-0.010293852537870407,-0.010609625838696957,-0.062268778681755066,-0.012328161858022213,-0.10665111988782883,-0.02350703626871109,-0.16932138800621033,-0.10094571113586426,-0.04071890935301781,-4.9582566134631634e-05,13.59424877166748,7.045036792755127,6.549211502075195,1843.0,1802.0,0.0,0.0,0.09925144910812378,0.013412320986390114,1.5274431705474854,-0.08908450603485107,-0.011728142388164997,0.0497831329703331,0.152387335896492,0.04542708396911621,0.08143781870603561,0.19299009442329407,0.025984840467572212,-4.958261706633493e-05,1.0,0.545322835445404,0.8689219355583191,0,0.05994594469666481,3545053819,1535,516
827477062,4,408,11075,6070,412795508,412796,406581,344,-8997,6252,6553,36,750,-601,27.6875,-0.15453696250915527,0.0667990893125534,0.9977589845657349,13.035941123962402,1.2016041278839111,10.255773544311523,-0.6795991063117981,-0.07039162516593933,90.40558624267578,1529,1500,1747,1500,2000,1000,1000,1000,1727,1665,1508,1851,1795,1591,1486,280,102,17087,17239,2,,,88.74,-1.26,1,1,1,1,1,1,1,0,1,1,0,0,stabilized_mix,-0.04222336411476135,0.2260131686925888,0.021069126203656197,0.0021136600989848375,-0.044980425387620926,-0.12831053137779236,0.0,0.04639999940991402,-0.0021136600989848375,0.09138042479753494,0.0,0.0,0.0,0.0,0.0,0.0,0.0,0.0,0.0,0.0,0.0,-0.1342337280511856,0.0,0.0,0.0,0.0,0.0,-0.1342337280511856,0.016700830310583115,0.161235049366951,13.59280014038086,0.001228652079589665,-0.011861233040690422,-0.004926710389554501,-0.09712846577167511,-0.005801558494567871,-0.15961414575576782,-0.012632561847567558,-0.2586205005645752,-0.10353493690490723,-0.08949850499629974,-6.756174843758345e-05,13.593767166137695,7.134692668914795,6.459074974060059,1851.0,1795.0,0.0,0.0,0.15104825794696808,0.008270925842225552,1.5273665189743042,-0.1388225108385086,-0.005341025069355965,0.0509672686457634,0.22752009332180023,0.02097194828093052,0.1789970099925995,0.2928839325904846,0.013695352710783482,-6.756170478183776e-05,0.6895303726196289,0.8276174068450928,0.868891179561615,4,0.061131540685892105,3091084354,1536,517
827477062,4,408,11076,6070,412799535,412800,406585,340,4423,13853,-1372,-161,-56,-227,27.65625,0.09687931835651398,-0.20599856972694397,1.0125908851623535,8.633365631103516,2.8747315406799316,6.931215763092041,-0.7060229182243347,-0.023991763591766357,90.45645904541016,1529,1500,1747,1500,2000,1000,1000,1000,1727,1605,1516,1847,1799,1591,1486,284,106,17087,17239,2,,,88.74,-1.26,1,1,1,1,1,1,1,0,1,1,0,0,stabilized_mix,0.106585294008255,0.23779934644699097,0.06976054608821869,0.0024377473164349794,-0.044334836304187775,-0.12801161408424377,0.0,0.04639999940991402,-0.0024377473164349794,0.09073483943939209,0.0,0.0,0.0,0.0,0.0,0.0,0.0,0.0,0.0,0.0,0.0,-0.13648636639118195,0.0,0.0,0.0,0.0,0.0,-0.13648636639118195,0.005693478975445032,0.16754184663295746,13.595813751220703,0.0004187670419923961,-0.012322421185672283,-0.010765421204268932,-0.05897551774978638,-0.01360088586807251,-0.10543112456798553,-0.025204002857208252,-0.16465231776237488,-0.10531067848205566,-0.06048626825213432,-5.802896339446306e-05,13.596846580505371,7.088568210601807,6.5082783699035645,1847.0,1799.0,0.0,0.0,0.09652001410722733,0.01432486530393362,1.5274945497512817,-0.08439336717128754,-0.01191356498748064,0.05192246660590172,0.15068066120147705,0.050173528492450714,0.12097253650426865,0.18775179982185364,0.027888882905244827,-5.80289306526538e-05,1.0,0.5304198861122131,0.8690879940986633,0,0.06172433868050575,3482217359,1536,517
827477062,4,408,11077,6070,412803568,412804,406589,316,4401,4300,-4878,35,520,-215,27.46875,0.05454561859369278,0.08207850903272629,0.9429681301116943,10.795498847961426,-0.6721309423446655,16.55164909362793,-0.7108026146888733,-0.07733553647994995,90.5033950805664,1529,1500,1747,1500,2000,1000,1000,1000,1727,1634,1498,1862,1788,1591,1486,288,110,17087,17239,2,,,88.74,-1.26,1,1,1,1,1,1,1,0,1,1,0,0,stabilized_mix,-0.05274861305952072,0.09885935485363007,0.005414677783846855,0.002555502811446786,-0.04332346096634865,-0.12787805497646332,0.0,0.04639999940991402,-0.002555502811446786,0.08972346037626266,0.0,0.0,0.0,0.0,0.0,0.0,0.0,0.0,0.0,0.0,0.0,-0.1387389898300171,0.0,0.0,0.0,0.0,0.0,-0.1387389898300171,0.018356626853346825,0.16871410608291626,13.598867416381836,0.0013498635962605476,-0.012405835092067719,0.0018659422639757395,-0.0773041844367981,0.0032081743702292442,-0.13194498419761658,0.0025610264856368303,-0.21048954129219055,-0.1069490909576416,-0.14444038271903992,-8.798635099083185e-05,13.599925994873047,7.239894866943359,6.3600311279296875,1862.0,1788.0,0.0,0.0,0.12334273755550385,0.0002271595294587314,1.526135802268982,-0.11060057580471039,0.002047806978225708,0.053322695195674896,0.1884170025587082,-0.011730898171663284,0.28888076543807983,0.2393857091665268,-0.0028101946227252483,-8.798631461104378e-05,1.0,0.6761383414268494,0.8692848086357117,0,0.0623171366751194,3956908331,1536,517
827477062,4,408,11078,6070,412807600,412808,406593,320,-7305,6417,6577,50,629,-576,27.5,-0.17849603295326233,-0.017855986952781677,1.0196497440338135,11.929491996765137,1.3404499292373657,9.882162094116211,-0.8686478734016418,-0.0958041250705719,90.53966522216797,1529,1500,1747,1500,2000,1000,1000,1000,1727,1647,1509,1851,1795,1591,1486,292,114,17087,17239,2,,,88.74,-1.26,1,1,1,1,1,1,1,0,1,1,0,0,stabilized_mix,-0.1170816719532013,0.39466336369514465,-0.02382659912109375,0.0027075880207121372,-0.03978383168578148,-0.12767232954502106,0.0,0.04639999940991402,-0.0027075880207121372,0.0861838310956955,0.0,0.0,0.0,0.0,0.0,0.0,0.0,0.0,0.0,0.0,0.0,-0.1351747363805771,0.0,0.0,0.0,0.0,0.0,-0.1351747363805771,0.022732244804501534,0.20610325038433075,13.593473434448242,0.0016722895670682192,-0.01516074500977993,-0.006098766811192036,-0.08371813595294952,-0.00642713438719511,-0.14595216512680054,-0.014192905277013779,-0.2309226393699646,-0.1082150936126709,-0.08623813092708588,-6.80586090311408e-05,13.595054626464844,7.137820720672607,6.4572343826293945,1851.0,1795.0,0.0,0.0,0.13505682349205017,0.009002506732940674,1.527330994606018,-0.11971433460712433,-0.0066584376618266106,0.05341348424553871,0.20820891857147217,0.023395264521241188,0.17247626185417175,0.26213422417640686,0.015495914965867996,-6.805862358305603e-05,1.0,0.7406561970710754,0.8689734935760498,0,0.06290993839502335,2101899750,1536,517
827477062,4,408,11079,6070,412811632,412812,406597,320,6193,11621,-1840,-223,-146,-172,27.5,0.10293477773666382,-0.23276397585868835,0.9776696562767029,7.467788219451904,3.0758097171783447,6.4934868812561035,-0.9202613830566406,-0.062065064907073975,90.59186553955078,1529,1500,1747,1500,2000,1000,1000,1000,1727,1586,1518,1847,1799,1591,1486,296,118,17087,17239,2,,,88.74,-1.26,1,1,1,1,1,1,1,0,1,1,0,0,stabilized_mix,-0.009607098996639252,0.39051586389541626,0.03604242950677872,0.0025772862136363983,-0.03853045776486397,-0.12754014134407043,0.0,0.04639999940991402,-0.0025772862136363983,0.08493045717477798,0.0,0.0,0.0,0.0,0.0,0.0,0.0,0.0,0.0,0.0,0.0,-0.13742735981941223,0.0,0.0,0.0,0.0,0.0,-0.13742735981941223,0.014730035327374935,0.21839813888072968,13.5963716506958,0.001083379378542304,-0.016061579808592796,-0.012656530365347862,-0.04460405558347702,-0.014487716369330883,-0.09114595502614975,-0.027818959206342697,-0.13575837016105652,-0.11003732681274414,-0.05666636303067207,-5.8346311561763287e-05,13.59813404083252,7.090798854827881,6.507335662841797,1847.0,1799.0,0.0,0.0,0.07961723953485489,0.015593448653817177,1.5273517370224,-0.06385169923305511,-0.014067438431084156,0.05445293337106705,0.13033749163150787,0.05368300527334213,0.11333272606134415,0.15504319965839386,0.030920516699552536,-5.8346289733890444e-05,1.0,0.43797293305397034,0.8691703081130981,0,0.063502736389637,522179058,1536,517
827477062,4,408,11091,6081,412860030,412860,406645,312,7170,9781,-1383,-296,-239,135,27.4375,0.08787262439727783,-0.21540012955665588,0.9858685731887817,-1.5489071607589722,2.625871419906616,1.5589103698730469,-1.8443174362182617,0.017660468816757202,90.88176727294922,1529,1500,1747,1500,2000,1000,1000,1000,1727,1456,1514,1843,1804,1591,1486,344,166,17087,17239,2,,,88.74,-1.26,1,1,1,1,1,1,1,0,1,1,0,0,stabilized_mix,0.024007361382246017,0.7501757144927979,0.027483955025672913,0.006659901700913906,-9.925229824148118e-05,-0.12455672025680542,0.0,0.04639999940991402,-0.006659901700913906,0.04649925231933594,0.0,0.0,0.0,0.0,0.0,0.0,0.0,0.0,0.0,0.0,0.0,-0.15195322036743164,0.0,0.0,0.0,0.0,0.0,-0.15195322036743164,-0.004197518806904554,0.4382793605327606,13.610936164855957,-0.0003083930932916701,-0.03218940272927284,-0.009833049029111862,0.0509604811668396,-0.012268241494894028,0.018852367997169495,-0.02206893265247345,0.06990032643079758,-0.12015676498413086,-0.013604058884084225,-4.681630525738001e-05,13.61799144744873,7.043076992034912,6.57491397857666,1843.0,1804.0,0.0,0.0,-0.04133728891611099,0.011069945059716702,1.5256497859954834,0.07304780930280685,-0.011020863428711891,0.060407139360904694,-0.027033530175685883,0.045830100774765015,0.02720811776816845,-0.08012823015451431,0.024732640013098717,-4.681628706748597e-05,1.0,0.2260197252035141,0.8704395294189453,0,0.07061631232500076,2799777015,1536,517
827477062,4,408,11092,6081,412863056,412864,406648,316,-4375,5331,291,192,381,-107,27.46875,-0.06617318838834763,-0.02108369767665863,0.9762542843818665,0.17474126815795898,-0.5059192180633545,5.286164283752441,-1.901085376739502,-0.012415677309036255,90.88896179199219,1529,1500,1747,1500,2000,1000,1000,1000,1727,1477,1497,1848,1800,1591,1486,348,170,17087,17239,2,,,88.74,-1.26,1,1,1,1,1,1,1,0,1,1,0,0,stabilized_mix,-0.0632864311337471,0.790649950504303,-0.019327400252223015,0.006752319633960724,0.0023004435934126377,-0.12450727075338364,0.0,0.04639999940991402,-0.006752319633960724,0.04409955441951752,0.0,0.0,0.0,0.0,0.0,0.0,0.0,0.0,0.0,0.0,0.0,-0.15420585870742798,0.0,0.0,0.0,0.0,0.0,-0.15420585870742798,0.002951610367745161,0.45186692476272583,13.613574028015137,0.00021681377256754786,-0.033180199563503265,0.0028366639744490385,0.03776106238365173,0.002359692007303238,-0.0021271980367600918,0.005183173343539238,0.03559911251068115,-0.1204078197479248,-0.04613048583269119,-5.82884531468153e-05,13.621070861816406,7.101977348327637,6.519093036651611,1848.0,1800.0,0.0,0.0,-0.020949702709913254,-0.0030397281516343355,1.526171326637268,0.05415217578411102,0.0031868014484643936,0.060063377022743225,0.003049810416996479,-0.008829955942928791,0.09226097166538239,-0.04084062948822975,-0.005821536295115948,-5.8288402215112e-05,1.0,0.11517416685819626,0.8706364035606384,0,0.07120911031961441,3116024856,1536,517
827477062,4,408,11093,6081,412867117,412868,406652,306,2461,9589,4726,-243,-130,159,27.390625,0.029253512620925903,-0.22627520561218262,1.0046818256378174,-3.412954330444336,3.6885390281677246,0.01067960262298584,-1.9689357280731201,0.049036890268325806,90.9065933227539,1529,1500,1747,1500,2000,1000,1000,1000,1727,1429,1520,1842,1806,1591,1486,352,174,17087,17239,2,,,88.74,-1.26,1,1,1,1,1,1,1,0,1,1,0,0,stabilized_mix,0.11509775370359421,0.8725095391273499,0.03496187925338745,0.006950451992452145,0.004976314026862383,-0.12423496693372726,0.0,0.04639999940991402,-0.006950451992452145,0.04142368584871292,0.0,0.0,0.0,0.0,0.0,0.0,0.0,0.0,0.0,0.0,0.0,-0.15439441800117493,0.0,0.0,0.0,0.0,0.0,-0.15439441800117493,-0.011657881550490856,0.46799662709236145,13.613280296325684,-0.0008563607116229832,-0.03436439856886864,-0.01393644418567419,0.06913813203573227,-0.017292022705078125,0.041538484394550323,-0.031232059001922607,0.11083841323852539,-0.12102341651916504,-9.319711534772068e-05,-4.239077679812908e-05,13.62132740020752,7.022617816925049,6.598710060119629,1842.0,1806.0,0.0,0.0,-0.06549561768770218,0.015499441884458065,1.5250911712646484,0.09909415245056152,-0.01556523609906435,0.061175037175416946,-0.05956729128956795,0.06437715142965317,0.00018639423069544137,-0.12692977488040924,0.03487781807780266,-4.239081317791715e-05,1.0,0.35794636607170105,0.8706527948379517,0,0.07180190831422806,2591178465,1536,517
827477062,4,408,11094,6081,412871209,412872,406656,330,3138,7278,-5224,-45,87,192,27.578125,0.10436658561229706,-0.0709381029009819,0.9257217049598694,-2.746297836303711,-1.0393134355545044,6.4744439125061035,-1.9864346981048584,0.02730366587638855,90.92896270751953,1529,1500,1747,1500,2000,1000,1000,1000,1727,1438,1493,1850,1798,1591,1486,356,178,17087,17239,2,,,88.74,-1.26,1,1,1,1,1,1,1,0,1,1,0,0,stabilized_mix,0.06881654262542725,0.7458295822143555,0.0603155642747879,0.00732868118211627,0.008144069463014603,-0.12402939051389694,0.0,0.04639999940991402,-0.00732868118211627,0.038255929946899414,0.0,0.0,0.0,0.0,0.0,0.0,0.0,0.0,0.0,0.0,0.0,-0.15664704144001007,0.0,0.0,0.0,0.0,0.0,-0.15664704144001007,-0.006492558866739273,0.47226113080978394,13.616217613220215,-0.0004768254002556205,-0.034669820219278336,0.0055594779551029205,0.06424617767333984,0.004864392802119255,0.03341558575630188,0.010669547133147717,0.09767495095729828,-0.12180423736572266,-0.056500181555747986,-6.240652874112129e-05,13.624406814575195,7.124236106872559,6.500170707702637,1850.0,1798.0,0.0,0.0,-0.057478684931993484,-0.006447628606110811,1.52647864818573,0.09211263060569763,0.006220807787030935,0.06050395220518112,-0.047931939363479614,-0.018139440566301346,0.11300036311149597,-0.11193183809518814,-0.011936976574361324,-6.240654329303652e-05,1.0,0.3155803382396698,0.870849609375,0,0.0723947063088417,1434840637,1536,517
827477062,4,408,11095,6081,412875298,412876,406660,338,-4015,5746,990,120,428,36,27.640625,-0.08058113604784012,-0.030837297439575195,1.0010541677474976,-3.1274642944335938,0.656564474105835,6.088101387023926,-2.0666866302490234,0.05045780539512634,90.9408187866211,1529,1500,1747,1500,2000,1000,1000,1000,1727,1432,1502,1850,1799,1591,1486,360,182,17087,17239,2,,,88.74,-1.26,1,1,1,1,1,1,1,0,1,1,0,0,stabilized_mix,0.04704916104674339,0.8273310661315918,-0.001738143153488636,0.008144312538206577,0.010156653821468353,-0.12375826388597488,0.0,0.04639999940991402,-0.008144312538206577,0.03624334558844566,0.0,0.0,0.0,0.0,0.0,0.0,0.0,0.0,0.0,0.0,0.0,-0.1562235802412033,0.0,0.0,0.0,0.0,0.0,-0.1562235802412033,-0.011997888796031475,0.49131128191947937,13.614960670471191,-0.0008812280721031129,-0.03607046604156494,-0.0008784429519437253,0.06905663758516312,-0.0030763482209295034,0.03805587440729141,-0.0036923366133123636,0.10730785876512527,-0.12221813201904297,-0.05312870815396309,-6.137136369943619e-05,13.623827934265137,7.118771076202393,6.505057334899902,1850.0,1799.0,0.0,0.0,-0.06323713064193726,0.0010345624759793282,1.526042103767395,0.09899348020553589,-0.0009829477639868855,0.06105341762304306,-0.05458454787731171,0.011459211818873882,0.10625741630792618,-0.12292410433292389,0.004126940853893757,-6.137139280326664e-05,1.0,0.3465866446495056,0.8708125948905945,0,0.07298630475997925,1453102485,1537,518
827477062,4,408,11096,6081,412879234,412880,406664,328,2430,8947,2582,-319,-173,257,27.5625,0.027739152312278748,-0.21147975325584412,0.9977827668190002,-6.24791955947876,3.869255542755127,0.3413355350494385,-2.1338822841644287,0.07861217856407166,90.9600601196289,1529,1500,1747,1500,2000,1000,1000,1000,1727,1390,1521,1843,1806,1591,1486,364,186,17087,17239,2,,,88.74,-1.26,1,1,1,1,1,1,1,0,1,1,0,0,stabilized_mix,0.1289498507976532,0.9047040343284607,0.04363946244120598,0.0086756506934762,0.01324225589632988,-0.12345539778470993,0.0,0.04639999940991402,-0.0086756506934762,0.03315774351358414,0.0,0.0,0.0,0.0,0.0,0.0,0.0,0.0,0.0,0.0,0.0,-0.15847621858119965,0.0,0.0,0.0,0.0,0.0,-0.15847621858119965,-0.018696673214435577,0.5073928236961365,13.61744499206543,-0.0013729934580624104,-0.03724323585629463,-0.01477533858269453,0.0964597538113594,-0.01829390600323677,0.07606501132249832,-0.03304646909236908,0.17318511009216309,-0.12288975715637207,-0.0029787144158035517,-4.40540025010705e-05,13.626907348632812,7.033723831176758,6.593183517456055,1843.0,1806.0,0.0,0.0,-0.10209304839372635,0.015754690393805504,1.52449369430542,0.13820630311965942,-0.016363661736249924,0.062363751232624054,-0.10904676467180252,0.06753125041723251,0.005957428831607103,-0.19782282412052155,0.03659013286232948,-4.405396248330362e-05,1.0,0.5576387643814087,0.8710094094276428,0,0.0735791027545929,1750587928,1537,518
827477062,4,408,11097,6081,412883232,412884,406668,314,1874,7726,-4791,3,95,212,27.453125,0.045215390622615814,-0.09354481101036072,0.9532850384712219,-4.862475395202637,-1.3191962242126465,5.510560512542725,-2.1699259281158447,0.04415687918663025,90.97808837890625,1529,1500,1747,1500,2000,1000,1000,1000,1727,1407,1492,1849,1800,1591,1486,368,190,17087,17239,2,,,88.74,-1.26,1,1,1,1,1,1,1,0,1,1,0,0,stabilized_mix,0.030737612396478653,0.8375765681266785,0.0374721884727478,0.009077601134777069,0.01654328778386116,-0.1232554018497467,0.0,0.04639999940991402,-0.009077601134777069,0.029856711626052856,0.0,0.0,0.0,0.0,0.0,0.0,0.0,0.0,0.0,0.0,0.0,-0.1607288420200348,0.0,0.0,0.0,0.0,0.0,-0.1607288420200348,-0.010504396632313728,0.5160760879516602,13.620208740234375,-0.0007712359074503183,-0.03787234053015709,0.006765089929103851,0.08589925616979599,0.0062066251412034035,0.05916246771812439,0.013344422914087772,0.14533379673957825,-0.1235189437866211,-0.04808871075510979,-6.0062622651457787e-05,13.629985809326172,7.1153059005737305,6.514679431915283,1849.0,1800.0,0.0,0.0,-0.08547312766313553,-0.008232951164245605,1.52681303024292,0.12314176559448242,0.00752614252269268,0.06109508126974106,-0.08486620336771011,-0.023024316877126694,0.09617742151021957,-0.16629421710968018,-0.014846853911876678,-6.006267722113989e-05,1.0,0.46865758299827576,0.8712062239646912,0,0.07417190074920654,3535534153,1537,518
827477062,4,408,11098,6081,412887257,412888,406672,318,-73,7825,467,101,199,133,27.484375,-0.042400188744068146,-0.08990836143493652,1.0220847129821777,-5.7629008293151855,0.8951506614685059,3.1182777881622314,-2.214888095855713,0.06981167197227478,90.98792266845703,1529,1500,1747,1500,2000,1000,1000,1000,1727,1395,1504,1846,1802,1591,1486,372,194,17087,17239,2,,,88.74,-1.26,1,1,1,1,1,1,1,0,1,1,0,0,stabilized_mix,0.031027356162667274,0.8354458212852478,-0.010550250299274921,0.009462201967835426,0.018359100446105003,-0.12302811443805695,0.0,0.04639999940991402,-0.009462201967835426,0.028040898963809013,0.0,0.0,0.0,0.0,0.0,0.0,0.0,0.0,0.0,0.0,0.0,-0.16124491393566132,0.0,0.0,0.0,0.0,0.0,-0.16124491393566132,-0.01660822331905365,0.5267913341522217,13.620499610900879,-0.0012193543370813131,-0.038657065480947495,-0.0021319917868822813,0.09429780393838882,-0.004224435426294804,0.07013042271137238,-0.006108354777097702,0.16501423716545105,-0.12386226654052734,-0.027212107554078102,-5.2876072004437447e-05,13.630692481994629,7.079726219177246,6.550965785980225,1846.0,1802.0,0.0,0.0,-0.09713581949472427,0.0017760376213118434,1.5259345769882202,0.1351533830165863,-0.0023658217396587133,0.061878688633441925,-0.100581593811512,0.015623326413333416,0.054424215108156204,-0.1886310577392578,0.006775558460503817,-5.287603198667057e-05,1.0,0.5315806269645691,0.8712514042854309,0,0.07476469874382019,3527833010,1537,518
827477062,4,408,11099,6081,412891289,412892,406676,326,4125,9632,1367,-313,-229,277,27.546875,0.0901566669344902,-0.10368195176124573,1.0073567628860474,-6.9330830574035645,3.546464204788208,0.13682055473327637,-2.2051801681518555,0.10372784733772278,91.00182342529297,1529,1500,1747,1500,2000,1000,1000,1000,1727,1380,1519,1843,1806,1591,1486,376,198,17087,17239,2,,,88.74,-1.26,1,1,1,1,1,1,1,0,1,1,0,0,stabilized_mix,0.1388520747423172,0.6975610256195068,0.017276078462600708,0.009883026592433453,0.021123524755239487,-0.12283071875572205,0.0,0.04639999940991402,-0.009883026592433453,0.02527647465467453,0.0,0.0,0.0,0.0,0.0,0.0,0.0,0.0,0.0,0.0,0.0,-0.16349755227565765,0.0,0.0,0.0,0.0,0.0,-0.16349755227565765,-0.024682465940713882,0.5246015191078186,13.623653411865234,-0.0018117341678589582,-0.03848759084939957,-0.012917784973978996,0.103647880256176,-0.016807857900857925,0.08438204973936081,-0.029714860022068024,0.18887242674827576,-0.12434744834899902,-0.0011939845280721784,-4.3939449824392796e-05,13.633771896362305,7.036583423614502,6.597188949584961,1843.0,1806.0,0.0,0.0,-0.11126375198364258,0.013826459646224976,1.524562954902649,0.14854329824447632,-0.014272203668951988,0.06301750987768173,-0.12100512534379959,0.06189747527241707,0.0023879690561443567,-0.21564622223377228,0.03282681107521057,-4.3939500756096095e-05,1.0,0.6075747609138489,0.8714482188224792,0,0.07535749673843384,1426271581,1537,518
827477062,4,408,11111,6092,412939689,412940,406724,332,2486,5911,6471,-257,-135,339,27.59375,-0.016338542103767395,-0.06262211501598358,0.9669649600982666,-10.9324951171875,2.8149290084838867,-1.1618322134017944,-2.1143529415130615,0.15390345454216003,91.09351348876953,1529,1500,1747,1500,2000,1000,1000,1000,1727,1328,1515,1842,1808,1591,1486,424,246,17087,17239,2,,,88.74,-1.26,1,1,1,1,1,1,1,0,1,1,0,0,stabilized_mix,0.007794280536472797,0.2900625169277191,0.06482958793640137,0.013489714823663235,0.028633149340748787,-0.12024663388729095,0.0,0.04639999940991402,-0.013489714823663235,0.01776685006916523,0.0,0.0,0.0,0.0,0.0,0.0,0.0,0.0,0.0,0.0,0.0,-0.176067516207695,0.0,0.0,0.0,0.0,0.0,-0.176067516207695,-0.0366680845618248,0.5036370754241943,13.641611099243164,-0.0026879520155489445,-0.036902282387018204,-0.010190176777541637,0.13535571098327637,-0.013581710867583752,0.1331266462802887,-0.023952849209308624,0.2709355354309082,-0.1275482177734375,0.010138899087905884,-4.1093211621046066e-05,13.650954246520996,7.030942916870117,6.620010852813721,1842.0,1808.0,0.0,0.0,-0.15894360840320587,0.00983454193919897,1.5245312452316284,0.19398526847362518,-0.011056751944124699,0.06443643569946289,-0.1908080279827118,0.049129780381917953,-0.020277798175811768,-0.30778416991233826,0.025991659611463547,-4.109325891477056e-05,0.535686731338501,0.8660783171653748,0.8725464940071106,4,0.0824674740433693,1847549248,1537,518
827477062,4,408,11112,6092,412943724,412944,406728,322,-51,8102,1314,50,45,373,27.515625,0.009119801223278046,0.007002567872405052,0.9896572828292847,-10.73252010345459,0.5917108058929443,2.1991260051727295,-2.029188871383667,0.14586612582206726,91.10218048095703,1529,1500,1747,1500,2000,1000,1000,1000,1727,1331,1502,1847,1804,1591,1486,428,250,17087,17239,2,,,88.74,-1.26,1,1,1,1,1,1,1,0,1,1,0,0,stabilized_mix,-0.01142763439565897,0.11970727145671844,0.025172557681798935,0.013517902232706547,0.02902098372578621,-0.11997466534376144,0.0,0.04639999940991402,-0.013517902232706547,0.017379015684127808,0.0,0.0,0.0,0.0,0.0,0.0,0.0,0.0,0.0,0.0,0.0,-0.17832015454769135,0.0,0.0,0.0,0.0,0.0,-0.17832015454769135,-0.03476100414991379,0.4834689497947693,13.645427703857422,-0.002547441516071558,-0.03541591018438339,-0.0004158522351644933,0.1321607232093811,-0.0028486482333391905,0.13064831495285034,-0.0029301405884325504,0.2651662826538086,-0.12785053253173828,-0.019190995022654533,-5.146453622728586e-05,13.654033660888672,7.084339141845703,6.5696940422058105,1847.0,1804.0,0.0,0.0,-0.15546292066574097,-0.0008346977992914617,1.5262384414672852,0.18947488069534302,-0.0004511845763772726,0.0635484904050827,-0.18731781840324402,0.010327301919460297,0.03838199004530907,-0.30145424604415894,0.003185220528393984,-5.1464532589307055e-05,0.6076993942260742,0.8480751514434814,0.8727433085441589,4,0.08306027203798294,2682199230,1537,518
827477062,4,408,11113,6092,412947757,412948,406732,298,-2336,11011,-4688,-105,283,327,27.328125,0.021845191717147827,0.06818437576293945,1.0528315305709839,-9.885910987854004,4.043429374694824,4.239642143249512,-1.9274311065673828,0.16127333045005798,91.10895538330078,1529,1500,1747,1500,2000,1000,1000,1000,1727,1344,1521,1849,1801,1591,1486,432,254,17087,17239,0,,,,,1,1,1,1,1,1,1,0,1,1,0,0,stabilized_mix,-0.005766076035797596,-0.05162239447236061,-0.014097167178988457,0.013459326699376106,0.02678433246910572,-0.11980326473712921,0.0,0.04639999940991402,-0.013459326699376106,0.019615666940808296,0.0,0.0,0.0,0.0,0.0,0.0,0.0,0.0,0.0,0.0,0.0,-0.17652085423469543,0.0,0.0,0.0,0.0,0.0,-0.17652085423469543,-0.03842572867870331,0.4591508209705353,13.643797874450684,-0.0028163439128547907,-0.03363988175988197,-0.014200096018612385,0.12274112552404404,-0.019377276301383972,0.12031073123216629,-0.03298894315958023,0.24513110518455505,-0.12808704376220703,-0.03699785843491554,-5.7779718190431595e-05,13.651575088500977,7.114686012268066,6.536888599395752,1849.0,1801.0,0.0,0.0,-0.1440744698047638,0.014771713875234127,1.5239646434783936,0.17600826919078827,-0.015514247119426727,0.06511828303337097,-0.17254169285297394,0.07057115435600281,0.07399571686983109,-0.27910447120666504,0.03603892773389816,-5.777971091447398e-05,0.8586385250091553,0.7853403687477112,0.8725861310958862,4,0.08365307003259659,3452965887,1537,518
827477062,4,408,11114,6092,412951790,412952,406736,320,1545,6412,3833,-169,-96,300,27.5,0.012537941336631775,-0.01757732965052128,0.9533488750457764,-9.908651351928711,2.0192534923553467,-0.3080982565879822,-1.8472689390182495,0.19264808297157288,91.11431884765625,1529,1500,1747,1500,2000,1000,1000,1000,1727,1345,1510,1844,1807,1591,1486,436,258,17087,17239,0,,,,,1,1,1,1,1,1,1,0,1,1,0,0,stabilized_mix,0.0628717914223671,-0.13115108013153076,0.020118990913033485,0.013753588311374187,0.025982415303587914,-0.11968128383159637,0.0,0.04639999940991402,-0.013753588311374187,0.020417584106326103,0.0,0.0,0.0,0.0,0.0,0.0,0.0,0.0,0.0,0.0,0.0,-0.17877349257469177,0.0,0.0,0.0,0.0,0.0,-0.17877349257469177,-0.045911550521850586,0.4401599168777466,13.647480964660645,-0.003364091506227851,-0.032240740954875946,-0.005243093706667423,0.12126946449279785,-0.009670063853263855,0.12056240439414978,-0.014957498759031296,0.24363547563552856,-0.12827444076538086,0.0026886644773185253,-4.3955049477517605e-05,13.654654502868652,7.047102928161621,6.6075520515441895,1844.0,1807.0,0.0,0.0,-0.14307096600532532,0.005528772249817848,1.5253112316131592,0.17394721508026123,-0.005732695572078228,0.0644204318523407,-0.17293858528137207,0.03524262085556984,-0.005377328954637051,-0.2774990499019623,0.016352584585547447,-4.395502037368715e-05,0.8774120807647705,0.7806469798088074,0.8727830052375793,4,0.08424586802721024,20848721,1537,518
827477062,4,408,11115,6092,412955820,412956,406740,308,1068,5577,1847,75,-9,286,27.40625,0.027777373790740967,0.024802392348647118,0.9409295320510864,-8.759540557861328,0.5849714279174805,2.3877947330474854,-1.729239583015442,0.19307562708854675,91.12554168701172,1529,1500,1747,1500,2000,1000,1000,1000,1727,1362,1501,1847,1803,1591,1486,440,262,17087,17239,0,,,,,1,1,1,1,1,1,1,0,1,1,0,0,stabilized_mix,0.04662128537893295,-0.3055850863456726,0.01207919605076313,0.013525750488042831,0.023022674024105072,-0.119559645652771,0.0,0.04639999940991402,-0.013525750488042831,0.023377325385808945,0.0,0.0,0.0,0.0,0.0,0.0,0.0,0.0,0.0,0.0,0.0,-0.17440231144428253,0.0,0.0,0.0,0.0,0.0,-0.17440231144428253,-0.04599330201745033,0.4118648171424866,13.64238452911377,-0.003371340688318014,-0.030180754140019417,0.0014992253854870796,0.10940749198198318,-0.0027863301802426577,0.10656962543725967,-0.0009934913832694292,0.21728220582008362,-0.12866616249084473,-0.020837439224123955,-5.2326242439448833e-05,13.648677825927734,7.085970401763916,6.562707901000977,1847.0,1803.0,0.0,0.0,-0.127633199095726,-0.0014157101977616549,1.5262893438339233,0.156935453414917,0.0016473039286211133,0.0640641525387764,-0.15288282930850983,0.010209677740931511,0.04167487844824791,-0.24787616729736328,0.0010928894625976682,-5.232626062934287e-05,1.0,0.6976186037063599,0.8724009990692139,0,0.08483866602182388,3361882490,1538,519
827477062,4,408,11116,6092,412959850,412960,406744,318,-4850,12014,-759,-130,382,214,27.484375,-0.026600727811455727,0.11551360785961151,1.0555922985076904,-6.98118782043457,4.104012489318848,4.780250549316406,-1.6144609451293945,0.2079131305217743,91.13340759277344,1529,1500,1747,1500,2000,1000,1000,1000,1727,1387,1520,1850,1801,1591,1486,444,266,17087,17239,0,,,,,1,1,1,1,1,1,1,0,1,1,0,0,stabilized_mix,0.043890878558158875,-0.43915078043937683,0.003346692770719528,0.013983359560370445,0.021155694499611855,-0.11933150142431259,0.0,0.04639999940991402,-0.013983359560370445,0.025244304910302162,0.0,0.0,0.0,0.0,0.0,0.0,0.0,0.0,0.0,0.0,0.0,-0.17665494978427887,0.0,0.0,0.0,0.0,0.0,-0.17665494978427887,-0.04953896254301071,0.38462111353874207,13.646248817443848,-0.0036302097141742706,-0.028177471831440926,-0.01212682668119669,0.0917787179350853,-0.019384466111660004,0.08485662937164307,-0.031049901619553566,0.17760008573532104,-0.12894058227539062,-0.041715554893016815,-5.972967483103275e-05,13.65175724029541,7.1245269775390625,6.527230262756348,1850.0,1801.0,0.0,0.0,-0.10471608489751816,0.014599066227674484,1.5245733261108398,0.13175885379314423,-0.013443998992443085,0.06534221023321152,-0.12184470891952515,0.07162853330373764,0.08343110978603363,-0.2031855434179306,0.03441767022013664,-5.97296493651811e-05,1.0,0.5717130899429321,0.8725978136062622,0,0.08543146401643753,2613556946,1538,519
827477062,4,408,11117,6092,412963884,412964,406748,320,2499,8165,1527,-181,-216,258,27.5,0.07168041169643402,-0.03522634506225586,0.9646613001823425,-7.972141265869141,2.0164434909820557,-1.1265448331832886,-1.5345582962036133,0.26422592997550964,91.14144897460938,1529,1500,1747,1500,2000,1000,1000,1000,1727,1375,1508,1843,1808,1591,1486,448,270,17087,17239,0,,,,,1,1,1,1,1,1,1,0,1,1,0,0,stabilized_mix,0.160368874669075,-0.4518394470214844,0.05543898791074753,0.014550215564668179,0.018910815939307213,-0.11908652633428574,0.0,0.04639999940991402,-0.014550215564668179,0.027489183470606804,0.0,0.0,0.0,0.0,0.0,0.0,0.0,0.0,0.0,0.0,0.0,-0.178907573223114,0.0,0.0,0.0,0.0,0.0,-0.178907573223114,-0.0629705935716629,0.36567115783691406,13.649794578552246,-0.004613267257809639,-0.0267828069627285,-0.0026305352803319693,0.09845632314682007,-0.009555015712976456,0.09691514819860458,-0.01231138501316309,0.19628825783729553,-0.12922143936157227,0.00983095820993185,-4.178669769316912e-05,13.654836654663086,7.036351680755615,6.618484973907471,1843.0,1808.0,0.0,0.0,-0.11549193412065506,0.00463913707062602,1.5255694389343262,0.1413470208644867,-0.0029067492578178644,0.06487308442592621,-0.13914011418819427,0.03519357740879059,-0.0196619164198637,-0.22435465455055237,0.013603388331830502,-4.178666495135985e-05,1.0,0.6311352849006653,0.8727946281433105,0,0.08602426201105118,1768584039,1538,519
827477062,4,408,11118,6092,412967943,412968,406752,328,4607,3018,2180,73,-76,231,27.5625,0.007853999733924866,-0.011947482824325562,0.9196035265922546,-6.793041706085205,0.9710196256637573,3.0073816776275635,-1.4378668069839478,0.25299516320228577,91.15496826171875,1529,1500,1747,1500,2000,1000,1000,1000,1727,1392,1501,1848,1803,1591,1486,452,274,17087,17239,0,,,,,1,1,1,1,1,1,1,0,1,1,0,0,stabilized_mix,0.08289121836423874,-0.5284488797187805,0.02861136943101883,0.014704701490700245,0.014413979835808277,-0.11888362467288971,0.0,0.04639999940991402,-0.014704701490700245,0.031986020505428314,0.0,0.0,0.0,0.0,0.0,0.0,0.0,0.0,0.0,0.0,0.0,-0.1755247265100479,0.0,0.0,0.0,0.0,0.0,-0.1755247265100479,-0.0602736622095108,0.34251973032951355,13.645780563354492,-0.004416989628225565,-0.025095265358686447,0.0021439758129417896,0.08674294501543045,-0.004581565037369728,0.08257483690977097,-0.0021511665545403957,0.16997092962265015,-0.12969326972961426,-0.026244355365633965,-5.457818042486906e-05,13.650212287902832,7.097997188568115,6.552215576171875,1848.0,1803.0,0.0,0.0,-0.10002386569976807,-0.0004042342770844698,1.5261482000350952,0.12453259527683258,0.002381092170253396,0.06476860493421555,-0.11856094002723694,0.016947489231824875,0.05248871073126793,-0.19451989233493805,0.002387954154983163,-5.457816587295383e-05,1.0,0.5473920702934265,0.8724990487098694,0,0.08661706000566483,647697231,1538,519
827477062,4,408,11119,6092,412971947,412972,406756,322,-6811,13460,-1115,-183,441,138,27.515625,-0.027600370347499847,0.11123506724834442,1.0798128843307495,-5.447413444519043,4.85715913772583,4.6548237800598145,-1.377023458480835,0.2638486921787262,91.16043853759766,1529,1500,1747,1500,2000,1000,1000,1000,1727,1410,1523,1850,1801,1591,1486,456,278,17087,17239,0,,,,,1,1,1,1,1,1,1,0,1,1,0,0,stabilized_mix,0.062332119792699814,-0.5102782845497131,-0.005474373698234558,0.015244080685079098,0.012164321728050709,-0.11863566190004349,0.0,0.04639999940991402,-0.015244080685079098,0.03423567861318588,0.0,0.0,0.0,0.0,0.0,0.0,0.0,0.0,0.0,0.0,0.0,-0.17777734994888306,0.0,0.0,0.0,0.0,0.0,-0.17777734994888306,-0.06287357211112976,0.32810258865356445,13.64920425415039,-0.004606358241289854,-0.024033335968852043,-0.013241359032690525,0.07386951148509979,-0.02280476503074169,0.06617563217878342,-0.03569977730512619,0.14069586992263794,-0.1298842430114746,-0.04062100127339363,-5.9676822274923325e-05,13.653291702270508,7.125030040740967,6.528261661529541,1850.0,1801.0,0.0,0.0,-0.08313161134719849,0.01745445467531681,1.524653434753418,0.10611037164926529,-0.014768439345061779,0.06584073603153229,-0.09507530182600021,0.08477342128753662,0.08124200254678726,-0.16129738092422485,0.03980924189090729,-5.9676833188859746e-05,1.0,0.453799307346344,0.8726958632469177,0,0.08720985800027847,2899877584,1538,519
827477062,4,408,11131,6103,413019336,413020,406803,342,-2965,11240,5696,-243,-91,-69,27.671875,-0.08335895836353302,0.04373444989323616,0.9888933897018433,-0.38712024688720703,5.154065132141113,-1.7817267179489136,-0.2257816195487976,0.46895739436149597,91.28353118896484,1529,1500,1747,1500,2000,1000,1000,1000,1727,1492,1523,1797,1767,1591,1486,504,326,17087,17239,0,,,,,1,1,1,1,1,1,1,0,1,1,0,0,stabilized_mix,0.04073382914066315,-1.1016818284988403,-0.0416729599237442,0.019741378724575043,-0.029544051736593246,-0.11905545741319656,0.0,0.04639999940991402,-0.019741378724575043,0.07594405114650726,0.0,0.0,0.0,0.0,0.0,0.0,0.0,0.0,0.0,0.0,0.0,0.6270669102668762,0.0,0.0,0.0,0.0,0.0,0.6270669102668762,-0.10274384915828705,0.049465253949165344,12.552552223205566,-0.008184913545846939,-0.003940500784665346,-0.009634110145270824,0.00816724169999361,-0.026062071323394775,0.005111267790198326,-0.03571176528930664,0.013143087737262249,-0.13418102264404297,0.01554849836975336,-4.152138717472553e-05,12.553070068359375,6.484142303466797,6.068928241729736,1797.0,1767.0,0.0,0.0,-0.007749056909233332,0.018046485260128975,1.5259678363800049,0.010794922709465027,-0.00997808389365673,0.06715326011180878,-0.0067565226927399635,0.0899554044008255,-0.03109699673950672,-0.013899470679461956,0.036975350230932236,-4.1521383536746725e-05,1.0,0.11554138362407684,0.8023715019226074,0,0.09432103484869003,4067182678,1538,519
827477062,4,408,11132,6103,413023371,413024,406807,302,7940,3674,-6314,-151,-76,104,27.359375,0.08951903879642487,0.05607563257217407,0.9237545132637024,0.13268959522247314,5.2080912590026855,5.0644426345825195,-0.05595167726278305,0.4786442816257477,91.30521392822266,1529,1500,1747,1500,2000,1000,1000,1000,1727,1501,1523,1806,1760,1591,1486,508,330,17087,17239,0,,,,,1,1,1,1,1,1,1,0,1,1,0,0,stabilized_mix,0.03391226381063461,-1.30629563331604,-0.1082516610622406,0.01990722492337227,-0.03466911241412163,-0.11942470073699951,0.0,0.04639999940991402,-0.01990722492337227,0.08106911182403564,0.0,0.0,0.0,0.0,0.0,0.0,0.0,0.0,0.0,0.0,0.0,0.6248142719268799,0.0,0.0,0.0,0.0,0.0,0.6248142719268799,-0.104891836643219,0.012261164374649525,12.555706024169922,-0.00835392251610756,-0.0009765068534761667,-0.009480712004005909,-0.0005764407687820494,-0.02632572129368782,-0.0017508938908576965,-0.03582201898097992,-0.0019426411017775536,-0.13493776321411133,-0.04419559985399246,-6.269663572311401e-05,12.55614948272705,6.59155797958374,5.9645915031433105,1806.0,1760.0,0.0,0.0,0.0008426305721513927,0.018248356878757477,1.526123046875,-0.0007627359009347856,-0.00982171855866909,0.06740454584360123,0.002315870253369212,0.09089834243059158,0.08839119970798492,0.00205593160353601,0.037101589143276215,-6.269667210290208e-05,1.0,0.11589764058589935,0.8025683760643005,0,0.09491383284330368,496172867,1538,519
827477062,4,408,11133,6103,413027402,413028,406811,316,-7177,9295,-2748,-197,448,-217,27.46875,0.010369759052991867,0.29447633028030396,1.0914561748504639,4.713962554931641,5.636001110076904,5.5570526123046875,0.01306801289319992,0.4870654046535492,91.3093032836914,1529,1500,1747,1500,2000,1000,1000,1000,1727,1567,1524,1822,1772,1591,1486,512,334,17087,17239,0,,,,,1,1,1,1,1,1,1,0,1,1,0,0,stabilized_mix,-0.038581911474466324,-1.2879046201705933,-0.14329475164413452,0.01939873956143856,-0.03884318098425865,-0.11961181461811066,0.0,0.04639999940991402,-0.01939873956143856,0.08524318039417267,0.0,0.0,0.0,0.0,0.0,0.0,0.0,0.0,0.0,0.0,0.0,0.3350713551044464,0.0,0.0,0.0,0.0,0.0,0.3350713551044464,-0.11010419577360153,-0.0029540355317294598,12.951759338378906,-0.008500894531607628,0.00022807162895333022,-0.008977374993264675,-0.04500912129878998,-0.02777102217078209,-0.060356102883815765,-0.03713548928499222,-0.10506680607795715,-0.13508057594299316,-0.048494432121515274,-6.42512459307909e-05,12.952227592468262,6.797370433807373,6.154857635498047,1822.0,1772.0,0.0,0.0,0.06030353158712387,0.020055023953318596,1.5273184776306152,-0.06137068569660187,-0.009541062638163567,0.06655830144882202,0.0822741687297821,0.09836677461862564,0.09698886424303055,0.1144326701760292,0.039455268532037735,-6.42512459307909e-05,1.0,0.3393746614456177,0.8278850317001343,0,0.09550663083791733,527312122,1538,519
827477062,4,408,11134,6103,413031436,413032,406815,320,-2998,12295,6128,-214,-192,-130,27.5,-0.07499320805072784,-0.009696230292320251,1.0046073198318481,1.825843095779419,5.153747081756592,-3.906219720840454,0.07022152841091156,0.5059889554977417,91.3141860961914,1529,1500,1747,1500,2000,1000,1000,1000,1727,1528,1520,1811,1783,1591,1486,516,338,17087,17239,0,,,,,1,1,1,1,1,1,1,0,1,1,0,0,stabilized_mix,-0.01610952988266945,-1.1060521602630615,-0.05621001124382019,0.019483303651213646,-0.04385557025671005,-0.11987126618623734,0.0,0.04639999940991402,-0.019483303651213646,0.09025557339191437,0.0,0.0,0.0,0.0,0.0,0.0,0.0,0.0,0.0,0.0,0.0,0.3328187167644501,0.0,0.0,0.0,0.0,0.0,0.3328187167644501,-0.11440907418727875,-0.015877360478043556,12.954792022705078,-0.008831179700791836,0.0012255491456016898,-0.006834598258137703,-0.01966250315308571,-0.025273513048887253,-0.023360831663012505,-0.032006241381168365,-0.04331694543361664,-0.13525104522705078,0.034088198095560074,-3.540702164173126e-05,12.955307006835938,6.654688835144043,6.300618648529053,1811.0,1783.0,0.0,0.0,0.02476413920521736,0.01692970097064972,1.526526927947998,-0.026821715757250786,-0.0072977980598807335,0.06723400205373764,0.031866975128650665,0.08994985371828079,-0.06817639619112015,0.0472615584731102,0.03417271375656128,-3.540699617587961e-05,1.0,0.14013099670410156,0.8280818462371826,0,0.09609942883253098,3894126959,1538,519
827477062,4,408,11135,6103,413035470,413036,406819,316,8083,4285,-5268,-177,-26,62,27.46875,0.14529044926166534,0.05876350402832031,0.9294500350952148,2.420384168624878,5.139947891235352,4.935179710388184,0.21553802490234375,0.5492458343505859,91.3299560546875,1529,1500,1747,1500,2000,1000,1000,1000,1727,1536,1519,1833,1782,1591,1486,520,342,17087,17239,0,,,,,1,1,1,1,1,1,1,0,1,1,0,0,stabilized_mix,0.07848852872848511,-1.2749650478363037,-0.11136403679847717,0.018956301733851433,-0.04731683060526848,-0.12026587873697281,0.0,0.04639999940991402,-0.018956301733851433,0.0937168300151825,0.0,0.0,0.0,0.0,0.0,0.0,0.0,0.0,0.0,0.0,0.0,0.14502738416194916,0.0,0.0,-0.0,0.0,0.0,0.14502738416194916,-0.12665042281150818,-0.04969920590519905,13.21131706237793,-0.009586216881871223,0.003761675674468279,-0.005159204825758934,-0.026980064809322357,-0.024731826037168503,-0.0303668025881052,-0.03006240352988243,-0.05701969563961029,-0.1358015537261963,-0.043067567050457,-6.260420195758343e-05,13.212018013000488,6.91903018951416,6.292988300323486,1833.0,1782.0,0.0,0.0,0.03295492008328438,0.016192663460969925,1.5266414880752563,-0.03753352910280228,-0.005614821799099445,0.06738732755184174,0.04224367439746857,0.08970901370048523,0.086135134100914,0.06343038380146027,0.032711826264858246,-6.260419468162581e-05,1.0,0.1844174712896347,0.8444904088973999,0,0.09669222682714462,632684378,1539,520
827477062,4,408,11136,6103,413039502,413040,406823,310,-9727,5966,-1975,-169,481,-292,27.421875,0.004477363079786301,0.3271477222442627,1.0613813400268555,6.501021385192871,5.714919090270996,5.949485778808594,0.2491825520992279,0.5773307085037231,91.33393859863281,1529,1500,1747,1500,2000,1000,1000,1000,1727,1593,1522,1834,1781,1591,1486,524,346,17087,17239,0,,,,,1,1,1,1,1,1,1,0,1,1,0,0,stabilized_mix,0.04215016961097717,-1.1869103908538818,-0.1858062744140625,0.01938427798449993,-0.05171729996800423,-0.12060730904340744,0.0,0.04639999940991402,-0.01938427798449993,0.09811729937791824,0.0,0.0,0.0,0.0,0.0,0.0,0.0,0.0,0.0,0.0,0.0,0.14277474582195282,0.0,0.0,-0.0,0.0,0.0,0.14277474582195282,-0.13315731287002563,-0.05747010558843613,13.214301109313965,-0.010076416656374931,0.0043488359078764915,-0.005691304802894592,-0.06445469707250595,-0.027742259204387665,-0.08162328600883484,-0.03399082273244858,-0.1459905207157135,-0.1359405517578125,-0.051919057965278625,-6.575090810656548e-05,13.215097427368164,6.93630313873291,6.278794288635254,1834.0,1781.0,0.0,0.0,0.0845457911491394,0.018897296860814095,1.5277091264724731,-0.08963526785373688,-0.006139554549008608,0.06654525548219681,0.11346422880887985,0.09974415600299835,0.10383811593055725,0.16195501387119293,0.03665955737233162,-6.575086445081979e-05,1.0,0.47075825929641724,0.8446872234344482,0,0.09728502482175827,1643549936,1539,520
827477062,4,408,11137,6103,413043538,413044,406827,328,-186,12566,5767,-281,-310,-157,27.5625,-0.025622881948947906,-0.09755274653434753,1.0159592628479004,3.001709461212158,6.38344669342041,-4.770808696746826,0.2899883985519409,0.6542174816131592,91.34027099609375,1529,1500,1747,1500,2000,1000,1000,1000,1727,1546,1524,1820,1794,1591,1486,528,350,17087,17239,0,,,,,1,1,1,1,1,1,1,0,1,1,0,0,stabilized_mix,0.1799638271331787,-0.9835525751113892,-0.07269825786352158,0.020101141184568405,-0.05631723627448082,-0.12090986967086792,0.0,0.04639999940991402,-0.020101141184568405,0.10271723568439484,0.0,0.0,0.0,0.0,0.0,0.0,0.0,0.0,0.0,0.0,0.0,0.14052210748195648,0.0,0.0,-0.0,0.0,0.0,0.14052210748195648,-0.1509251594543457,-0.06689587980508804,13.217145919799805,-0.011418395675718784,0.005060922354459763,-0.0068729473277926445,-0.03451813757419586,-0.030733518302440643,-0.03764601796865463,-0.0374087318778038,-0.07263513654470444,-0.13616156578063965,0.041633158922195435,-3.3084885217249393e-05,13.21817684173584,6.774512767791748,6.443664073944092,1820.0,1794.0,0.0,0.0,0.041990429162979126,0.02014806494116783,1.526954174041748,-0.04803941398859024,-0.007475911173969507,0.06730473786592484,0.052389711141586304,0.1114121600985527,-0.08326631784439087,0.08081317692995071,0.040678612887859344,-3.30849397869315e-05,1.0,0.23484674096107483,0.8448840379714966,0,0.09787782281637192,441656824,1539,520
827477062,4,408,11138,6103,413047571,413048,406831,312,7300,4000,-8915,-217,-14,-11,27.4375,0.1688694953918457,0.1688767522573471,0.8920736312866211,4.743210792541504,5.751803874969482,5.634336471557617,0.46948501467704773,0.6871110200881958,91.35690307617188,1529,1500,1747,1500,2000,1000,1000,1000,1727,1570,1520,1841,1788,1591,1486,532,354,17087,17239,0,,,,,1,1,1,1,1,1,1,0,1,1,0,0,stabilized_mix,0.16998286545276642,-1.2922556400299072,-0.09188655018806458,0.02022485062479973,-0.059151824563741684,-0.12133996188640594,0.0,0.04639999940991402,-0.02022485062479973,0.1055518239736557,0.0,0.0,0.0,0.0,0.0,0.0,0.0,0.0,0.0,0.0,0.0,0.01766933687031269,0.0,0.0,-0.0,0.0,0.0,0.01766933687031269,-0.16052712500095367,-0.1096775233745575,13.38470458984375,-0.011992751620709896,0.008193470537662506,-0.0028774102684110403,-0.05213253200054169,-0.027440257370471954,-0.05876220017671585,-0.030695170164108276,-0.11062029749155045,-0.13674211502075195,-0.04916886240243912,-6.506883073598146e-05,13.386116027832031,7.018402099609375,6.367713928222656,1841.0,1788.0,0.0,0.0,0.06443531811237335,0.017050445079803467,1.5272077322006226,-0.07345651090145111,-0.0031583975069224834,0.06728281080722809,0.08278464525938034,0.10038791596889496,0.09833772480487823,0.12449291348457336,0.033687107264995575,-6.506883801193908e-05,1.0,0.3572431802749634,0.8556184768676758,0,0.09847062081098557,3838811769,1539,520
827477062,4,408,11140,6104,413055631,413056,406839,312,2400,13135,3828,-325,-472,-133,27.4375,0.028803907334804535,-0.06433883309364319,0.9892971515655518,4.3125834465026855,7.367067813873291,-4.347747325897217,0.5543149709701538,0.766325831413269,91.3646469116211,1529,1500,1747,1500,2000,1000,1000,1000,1727,1566,1526,1833,1804,1591,1486,540,362,17087,17239,0,,,,,1,1,1,1,1,1,1,0,1,1,0,0,stabilized_mix,0.15141896903514862,-1.064507246017456,0.019032735377550125,0.02094075083732605,-0.06551142781972885,-0.12146952003240585,0.0,0.04639999940991402,-0.02094075083732605,0.11191143095493317,0.0,0.0,0.0,0.0,0.0,0.0,0.0,0.0,0.0,0.0,0.0,-0.06256598234176636,0.0,0.0,-0.0,0.0,0.0,-0.06256598234176636,-0.18049968779087067,-0.13055302202701569,13.493959426879883,-0.013375534676015377,0.00967375561594963,-0.006851376034319401,-0.050200678408145905,-0.03483691066503525,-0.05298580974340439,-0.041430629789829254,-0.10376053303480148,-0.13701248168945312,0.03794125095009804,-3.467488568276167e-05,13.495798110961914,6.921273708343506,6.574524402618408,1833.0,1804.0,0.0,0.0,0.060570646077394485,0.02268640324473381,1.527483344078064,-0.07131335139274597,-0.0075864423997700214,0.06724052876234055,0.07526878267526627,0.12857958674430847,-0.07588250190019608,0.11775989830493927,0.04587102681398392,-3.4674929338507354e-05,1.0,0.33517587184906006,0.8626291751861572,0,0.09965621680021286,1019751343,1539,520
827477062,4,408,11152,6115,413104017,413104,406887,302,8913,3218,3696,-421,-216,-316,27.359375,0.015454567968845367,0.07400161027908325,0.9073420166969299,11.479368209838867,8.487743377685547,3.29158353805542,1.1527891159057617,1.1208171844482422,91.557861328125,1530,1500,1747,1500,2000,1000,1000,1000,1727,1667,1526,1852,1801,1421,1486,8,410,17088,17239,1,82.89,-7.109999999999999,,,1,1,1,1,1,1,1,0,1,1,0,0,stabilized_mix,0.055364906787872314,-0.8909055590629578,0.036103107035160065,0.023584991693496704,-0.0939813181757927,-0.12026979774236679,0.0,0.04800000041723251,-0.023584991693496704,0.1419813185930252,0.0,0.0,0.0,0.0,0.0,0.0,0.0,0.0,0.0,0.0,0.0,-0.1957085132598877,0.0,0.0,-0.0,0.0,0.0,-0.1957085132598877,-0.26754745841026306,-0.2751257121562958,13.672419548034668,-0.01956590823829174,0.020116113126277924,0.000820918707177043,-0.12130063027143478,-0.04079306870698929,-0.13955259323120117,-0.04050544649362564,-0.2627406716346741,-0.14375686645507812,-0.028724484145641327,-6.0368445701897144e-05,13.677803993225098,7.140744209289551,6.537059783935547,1852.0,1801.0,0.0,0.0,0.15380771458148956,0.023232003673911095,1.529708981513977,-0.17428746819496155,0.0008948775939643383,0.06803838163614273,0.2003527730703354,0.14813905954360962,0.057448968291282654,0.29928112030029297,0.04412982612848282,-6.03684748057276e-05,0.6380069255828857,0.8404982686042786,0.8742626905441284,4,0.1067637950181961,594169228,1539,520
827477062,4,408,11153,6115,413108052,413108,406891,332,-8278,7706,-4183,-7,481,-611,27.59375,-0.008518114686012268,0.27188819646835327,1.0175447463989258,15.5017671585083,6.081941604614258,5.752342700958252,1.1722102165222168,1.0998483896255493,91.56388854980469,1530,1500,1747,1500,2000,1000,1000,1000,1727,1700,1512,1855,1799,1421,1486,12,414,17088,17239,1,82.89,-7.109999999999999,,,1,1,1,1,1,1,1,0,1,1,0,0,stabilized_mix,-0.07048490643501282,-0.8638445138931274,-0.025234971195459366,0.023245830088853836,-0.09320474416017532,-0.12008339911699295,0.0,0.04800000041723251,-0.023245830088853836,0.14120474457740784,0.0,0.0,0.0,0.0,0.0,0.0,0.0,0.0,0.0,0.0,0.0,-0.2047189325094223,0.0,0.0,-0.0,0.0,0.0,-0.2047189325094223,-0.2627790868282318,-0.2800140678882599,13.684734344482422,-0.01919999159872532,0.02045515738427639,0.011460505425930023,-0.15508651733398438,-0.029650146141648293,-0.1887909173965454,-0.019468357786536217,-0.31415778398513794,-0.1439673900604248,-0.05019865930080414,-6.795814260840416e-05,13.690120697021484,7.184851169586182,6.505269527435303,1855.0,1799.0,0.0,0.0,0.20326633751392365,0.013093200512230396,1.528806209564209,-0.2226850688457489,0.012309960089623928,0.06794339418411255,0.27055686712265015,0.10614990442991257,0.10039731860160828,0.39405375719070435,0.020910827443003654,-6.79581135045737e-05,0.0,1.1056612730026245,0.8750499486923218,6,0.10735659301280975,1245185160,1539,520
827477062,4,408,11154,6115,413111095,413112,406894,328,5542,7770,-2328,-454,-323,-400,27.5625,0.07630803436040878,-0.037595316767692566,0.9396186470985413,12.451475143432617,10.243228912353516,-1.0889368057250977,1.2170591354370117,1.139508843421936,91.57672119140625,1530,1500,1747,1500,2000,1000,1000,1000,1727,1682,1535,1847,1807,1421,1486,16,418,17088,17239,1,82.89,-7.109999999999999,,,1,1,1,1,1,1,1,0,1,1,0,0,stabilized_mix,0.013093985617160797,-0.8329183459281921,0.016861818730831146,0.02321161888539791,-0.09568271785974503,-0.12005404382944107,0.0,0.04800000041723251,-0.02321161888539791,0.14368271827697754,0.0,0.0,0.0,0.0,0.0,0.0,0.0,0.0,0.0,0.0,0.0,-0.20697157084941864,0.0,0.0,-0.0,0.0,0.0,-0.20697157084941864,-0.2723148763179779,-0.29078730940818787,13.687403678894043,-0.01989266648888588,0.021237488836050034,-0.00513283908367157,-0.13109171390533447,-0.049496009945869446,-0.15128514170646667,-0.0544406920671463,-0.2854340076446533,-0.14441514015197754,0.009502766653895378,-4.721933510154486e-05,13.69320011138916,7.082696914672852,6.610503196716309,1847.0,1807.0,0.0,0.0,0.16691608726978302,0.030394094064831734,1.531227707862854,-0.18848927319049835,-0.0055640460923314095,0.06729675829410553,0.21731923520565033,0.17877806723117828,-0.019005533307790756,0.3248189389705658,0.05898826941847801,-4.721932782558724e-05,0.35522913932800293,0.9111927151679993,0.8752467632293701,4,0.1079493910074234,2645896218,1539,520
827477062,4,408,11155,6115,413115126,413116,406898,304,-3760,5794,-2090,-255,334,-395,27.375,0.042679037898778915,0.23553341627120972,0.9876918792724609,15.006302833557129,6.925515651702881,5.797704696655273,1.2342889308929443,1.1565414667129517,91.5804672241211,1530,1500,1747,1500,2000,1000,1000,1000,1727,1700,1516,1856,1799,1421,1486,20,422,17088,17239,1,82.89,-7.109999999999999,,,1,1,1,1,1,1,1,0,1,1,0,0,stabilized_mix,-0.03059149719774723,-0.870063841342926,-0.08981204032897949,0.023196566849946976,-0.09839076548814774,-0.12013595551252365,0.0,0.04800000041723251,-0.023196566849946976,0.14639076590538025,0.0,0.0,0.0,0.0,0.0,0.0,0.0,0.0,0.0,0.0,0.0,-0.20922419428825378,0.0,0.0,-0.0,0.0,0.0,-0.20922419428825378,-0.2764468789100647,-0.2949678599834442,13.690312385559082,-0.02019014023244381,0.021538015455007553,0.009346489794552326,-0.15210485458374023,-0.033748745918273926,-0.18260470032691956,-0.025647420436143875,-0.31415778398513794,-0.1445460319519043,-0.0505945160984993,-6.829923950135708e-05,13.696279525756836,7.189635753631592,6.506643295288086,1856.0,1799.0,0.0,0.0,0.19778600335121155,0.01613006368279457,1.5293400287628174,-0.21853657066822052,0.01004371140152216,0.06793485581874847,0.2619093954563141,0.12087304890155792,0.1011890321969986,0.3837372958660126,0.027560550719499588,-6.829918856965378e-05,0.0,1.076230525970459,0.8754435777664185,6,0.10854218900203705,1611490260,1539,520
827477062,4,408,11156,6115,413119157,413120,406902,304,-4173,9958,5033,-247,57,-537,27.375,-0.07430198788642883,0.044582903385162354,1.0446101427078247,13.88965129852295,9.681488037109375,-1.3785812854766846,1.200584888458252,1.1982781887054443,91.58153533935547,1530,1500,1747,1500,2000,1000,1000,1000,1727,1700,1530,1847,1808,1421,1486,24,426,17088,17239,1,82.89,-7.109999999999999,,,1,1,1,1,1,1,1,0,1,1,0,0,stabilized_mix,-0.007966145873069763,-0.6362478733062744,-0.06976400315761566,0.022685088217258453,-0.09690961241722107,-0.12021048367023468,0.0,0.04800000041723251,-0.022685088217258453,0.14490962028503418,0.0,0.0,0.0,0.0,0.0,0.0,0.0,0.0,0.0,0.0,0.0,-0.21320942044258118,0.0,0.0,-0.0,0.0,0.0,-0.21320942044258118,-0.2865356504917145,-0.2870243787765503,13.695723533630371,-0.02091849036514759,0.020949576050043106,-0.00032716908026486635,-0.14268288016319275,-0.04716627299785614,-0.16881322860717773,-0.04722139984369278,-0.31415778398513794,-0.14458322525024414,0.01203039102256298,-4.639348480850458e-05,13.701726913452148,7.082831382751465,6.618896484375,1847.0,1808.0,0.0,0.0,0.18432296812534332,0.026780085638165474,1.5310999155044556,-0.2051757276058197,-0.00035260850563645363,0.0671224296092987,0.24242015182971954,0.16897384822368622,-0.02406078204512596,0.3582826256752014,0.05074933543801308,-4.639348844648339e-05,0.0,1.0044407844543457,0.8757917881011963,4,0.1091349869966507,1367558725,1540,521
827477062,4,408,11157,6115,413123190,413124,406906,332,6588,7948,-5640,-455,-369,-362,27.59375,0.12873348593711853,-0.0981283187866211,0.9370104670524597,12.729482650756836,10.419672966003418,-1.4918241500854492,1.1949964761734009,1.2159990072250366,91.59165954589844,1530,1500,1747,1500,2000,1000,1000,1000,1727,1685,1534,1847,1808,1421,1486,28,430,17088,17239,1,82.89,-7.109999999999999,,,1,1,1,1,1,1,1,0,1,1,0,0,stabilized_mix,0.04262765496969223,-0.536334753036499,-0.037216246128082275,0.022663777694106102,-0.09902211278676987,-0.12044116109609604,0.0,0.04800000041723251,-0.022663777694106102,0.14702211320400238,0.0,0.0,0.0,0.0,0.0,0.0,0.0,0.0,0.0,0.0,0.0,-0.21546205878257751,0.0,0.0,-0.0,0.0,0.0,-0.21546205878257751,-0.290837824344635,-0.2857508957386017,13.698740005493164,-0.021227801218628883,0.020851925015449524,-0.0033567785285413265,-0.13285818696022034,-0.050385236740112305,-0.15455684065818787,-0.05347476154565811,-0.2906951308250427,-0.14493680000305176,0.013018621131777763,-4.617136437445879e-05,13.704806327819824,7.0832600593566895,6.621546745300293,1847.0,1808.0,0.0,0.0,0.17000703513622284,0.02992219850420952,1.5312434434890747,-0.19117741286754608,-0.0036367541179060936,0.06740589439868927,0.2221713811159134,0.18185760080814362,-0.026037242263555527,0.3309188485145569,0.057901039719581604,-4.617136073647998e-05,0.28992700576782227,0.9275182485580444,0.8759886026382446,4,0.10972778499126434,3098625981,1540,521
827477062,4,408,11158,6115,413127202,413128,406910,314,-2959,5531,-819,-166,301,-465,27.453125,0.04329051077365875,0.11552348732948303,0.9919535517692566,15.078742980957031,6.456037521362305,3.615185022354126,1.0963259935379028,1.260883092880249,91.58528137207031,1530,1500,1747,1500,2000,1000,1000,1000,1727,1700,1511,1853,1802,1421,1486,32,434,17088,17239,1,82.89,-7.109999999999999,,,1,1,1,1,1,1,1,0,1,1,0,0,stabilized_mix,0.04212499409914017,-0.3569442331790924,-0.0907733142375946,0.022290416061878204,-0.09609982371330261,-0.12056642025709152,0.0,0.04800000041723251,-0.022290416061878204,0.14409983158111572,0.0,0.0,0.0,0.0,0.0,0.0,0.0,0.0,0.0,0.0,0.0,-0.21751084923744202,0.0,0.0,-0.0,0.0,0.0,-0.21751084923744202,-0.30163297057151794,-0.2622086703777313,13.701781272888184,-0.02201058715581894,0.019129861146211624,0.015113293193280697,-0.1497943103313446,-0.03143339604139328,-0.18334293365478516,-0.017097877338528633,-0.31415778398513794,-0.1447141170501709,-0.03154844045639038,-6.169185508042574e-05,13.707608222961426,7.162263870239258,6.545345306396484,1853.0,1802.0,0.0,0.0,0.19707879424095154,0.01181454211473465,1.5284665822982788,-0.2154194414615631,0.016256211325526237,0.06834322214126587,0.2631736993789673,0.11267910897731781,0.06309688091278076,0.38251441717147827,0.018388589844107628,-6.169189146021381e-05,0.0,1.0719141960144043,0.8761677145957947,6,0.11032058298587799,1771423071,1540,521
827477062,4,408,11159,6115,413131234,413132,406914,314,-3421,10489,3166,-283,1,-424,27.453125,-0.016643736511468887,-0.02127464860677719,1.0453356504440308,12.172869682312012,9.984570503234863,-3.5530428886413574,0.9922639727592468,1.3081567287445068,91.58076477050781,1530,1500,1747,1500,2000,1000,1000,1000,1727,1675,1529,1844,1811,1421,1486,36,438,17088,17239,1,82.89,-7.109999999999999,,,1,1,1,1,1,1,1,0,1,1,0,0,stabilized_mix,0.09466548264026642,-0.08137236535549164,-0.06423414498567581,0.022688129916787148,-0.09646683186292648,-0.12063068151473999,0.0,0.04800000041723251,-0.022688129916787148,0.144466832280159,0.0,0.0,0.0,0.0,0.0,0.0,0.0,0.0,0.0,0.0,0.0,-0.21976347267627716,0.0,0.0,-0.0,0.0,0.0,-0.21976347267627716,-0.3130103051662445,-0.23737168312072754,13.705059051513672,-0.02283506467938423,0.0173137579113245,0.0015471621882170439,-0.12410252541303635,-0.048036329448223114,-0.14768508076667786,-0.04587437957525253,-0.2748543620109558,-0.14455628395080566,0.03100614808499813,-3.974256105720997e-05,13.710687637329102,7.054056644439697,6.656630992889404,1844.0,1811.0,0.0,0.0,0.16091786324977875,0.026028353720903397,1.530332088470459,-0.17872296273708344,0.0016851946711540222,0.0677596777677536,0.21245665848255157,0.1742636263370514,-0.06201229616999626,0.3134910464286804,0.04992658272385597,-3.974254650529474e-05,0.48682498931884766,0.8782937526702881,0.876364529132843,4,0.11091338098049164,244886946,1540,521
827477062,4,408,11161,6116,413139299,413140,406922,312,-3378,5292,-91,-98,233,-435,27.4375,0.030182814225554466,0.07724516838788986,0.9805427193641663,12.928688049316406,5.499200820922852,2.066366195678711,0.8442479372024536,1.381567358970642,91.57129669189453,1529,1500,1746,1500,2000,1000,1000,1000,1727,1682,1503,1852,1804,1421,1486,44,446,17088,17239,1,82.89,-7.109999999999999,,,1,1,1,1,1,1,1,0,1,1,0,0,stabilized_mix,0.11090906709432602,0.10750439018011093,-0.07165698707103729,0.02280537784099579,-0.09161777794361115,-0.12091474235057831,0.0,0.04639999940991402,-0.02280537784099579,0.13801777362823486,0.0,0.0,0.0,0.0,0.0,0.0,0.0,0.0,0.0,0.0,0.0,-0.22146257758140564,0.0,0.0,-0.0,0.0,0.0,-0.22146257758140564,-0.330628365278244,-0.20199385285377502,13.707534790039062,-0.024115515872836113,0.014730622991919518,0.022452428936958313,-0.12649458646774292,-0.026531852781772614,-0.15690094232559204,-0.004459326155483723,-0.28615546226501465,-0.1442258358001709,-0.01803244650363922,-5.67904207855463e-05,13.713008880615234,7.140456676483154,6.572552680969238,1852.0,1804.0,0.0,0.0,0.16768406331539154,0.005001766141504049,1.5269542932510376,-0.18218138813972473,0.024366378784179688,0.069236621260643,0.2256481796503067,0.09597916156053543,0.03606489300727844,0.3260883390903473,0.004839560016989708,-5.679039531969465e-05,0.3462703227996826,0.9134324193000793,0.876512885093689,4,0.11209537833929062,995730206,1540,521
827477062,4,408,11174,6128,413191714,413192,406974,314,1389,7114,6192,-393,-195,-40,27.453125,-0.033681534230709076,-0.13946406543254852,0.9823887348175049,1.7465473413467407,10.606826782226562,-6.068587303161621,-0.08821820467710495,1.5797313451766968,91.4322280883789,1529,1500,1747,1500,2000,1000,1000,1000,1727,1524,1529,1841,1815,1421,1486,96,498,17088,17239,1,82.89,-7.109999999999999,,,1,1,1,1,1,1,1,0,1,1,0,0,stabilized_mix,0.06474253535270691,0.879054069519043,0.007583170663565397,0.020816896110773087,-0.05011342838406563,-0.12227096408605576,0.0,0.04639999940991402,-0.020816896110773087,0.09651342779397964,0.0,0.0,0.0,0.0,0.0,0.0,0.0,0.0,0.0,0.0,0.0,-0.23408682644367218,0.0,0.0,-0.0,0.0,0.0,-0.23408682644367218,-0.378516286611557,0.021132424473762512,13.725031852722168,-0.027571547776460648,-0.0015391131164506078,0.003387937555089593,-0.015067754313349724,-0.04907895624637604,-0.021083828061819077,-0.0455436185002327,-0.0370156466960907,-0.13937139511108398,0.0529584139585495,-3.0244584195315838e-05,13.730267524719238,7.016356945037842,6.713911056518555,1841.0,1815.0,0.0,0.0,0.021550510078668594,0.02452958934009075,1.5266363620758057,-0.021785074844956398,0.0038353558629751205,0.0690346509218216,0.030483001843094826,0.18512405455112457,-0.105916827917099,0.04280759394168854,0.05153833329677582,-3.0244542358559556e-05,1.0,0.14732849597930908,0.8776160478591919,0,0.11978016048669815,3034867395,1540,521
827477062,4,408,11175,6128,413195747,413196,406978,336,281,10691,785,-467,-174,38,27.625,0.0237759780138731,-0.11311177909374237,0.9942710995674133,0.6613392233848572,7.810243606567383,-4.117955207824707,-0.1889744997024536,1.6066304445266724,91.4189453125,1529,1500,1746,1500,2000,1000,1000,1000,1727,1507,1513,1844,1813,1421,1486,100,502,17088,17239,1,82.89,-7.109999999999999,,,1,1,1,1,1,1,1,0,1,1,0,0,stabilized_mix,0.09253481030464172,0.9407257437705994,0.02603844553232193,0.020648222416639328,-0.04447753727436066,-0.12209385633468628,0.0,0.04639999940991402,-0.020648222416639328,0.09087753295898438,0.0,0.0,0.0,0.0,0.0,0.0,0.0,0.0,0.0,0.0,0.0,-0.23499751091003418,0.0,0.0,-0.0,0.0,0.0,-0.23499751091003418,-0.3849947452545166,0.04527175799012184,13.726038932800293,-0.028041144832968712,-0.003296930342912674,0.015122881159186363,-0.003363969037309289,-0.03610724210739136,-0.00798268523067236,-0.020942416042089462,-0.011776887811720371,-0.13890790939331055,0.035935938358306885,-3.604020457714796e-05,13.731512069702148,7.045957088470459,6.6855549812316895,1844.0,1813.0,0.0,0.0,0.0068062650971114635,0.011239735409617424,1.5261842012405396,-0.004864924121648073,0.01713014394044876,0.06922014057636261,0.011542546562850475,0.13631446659564972,-0.07187187671661377,0.013622203841805458,0.023722179234027863,-3.604019002523273e-05,1.0,0.0677647814154625,0.877695620059967,0,0.12037055939435959,3265406645,1540,521
827477062,4,408,11176,6128,413199777,413200,406982,332,-262,7932,-5064,29,-123,33,27.59375,0.04636206850409508,-0.07994372397661209,0.9950189590454102,-0.24442008137702942,5.0394158363342285,-3.4480690956115723,-0.2859833836555481,1.6052511930465698,91.40034484863281,1529,1500,1747,1500,2000,1000,1000,1000,1727,1494,1498,1844,1812,1421,1486,104,506,17088,17239,1,82.89,-7.109999999999999,,,1,1,1,1,1,1,1,0,1,1,0,0,stabilized_mix,0.03242671862244606,0.9940451979637146,0.0016724802553653717,0.020921560004353523,-0.040215395390987396,-0.12194449454545975,0.0,0.04639999940991402,-0.020921560004353523,0.08661539852619171,0.0,0.0,0.0,0.0,0.0,0.0,0.0,0.0,0.0,0.0,0.0,-0.2372455894947052,0.0,0.0,-0.0,0.0,0.0,-0.2372455894947052,-0.3847503960132599,0.06852695345878601,13.729023933410645,-0.02801726572215557,-0.004989393055438995,0.026042897254228592,0.006606897339224815,-0.023288924247026443,0.002949315356090665,0.0027431868948042393,0.009324917569756508,-0.1382584571838379,0.030090078711509705,-3.785896115005016e-05,13.73458480834961,7.056587219238281,6.677997589111328,1844.0,1812.0,0.0,0.0,-0.005494769662618637,-0.0015471389051526785,1.526116132736206,0.009557219222187996,0.02950674295425415,0.06905875355005264,-0.004265935160219669,0.08795439451932907,-0.06018015742301941,-0.010790428146719933,-0.003107421100139618,-3.7858932046219707e-05,1.0,0.030178455635905266,0.877892017364502,0,0.12096215784549713,334795825,1540,521
827477062,4,408,11177,6128,413203807,413204,406986,312,742,6528,5235,-350,-237,54,27.4375,-0.07010045647621155,-0.10169287025928497,0.9862433671951294,-1.5978542566299438,9.923158645629883,-6.907822608947754,-0.3781769573688507,1.6081966161727905,91.37480926513672,1529,1500,1746,1500,2000,1000,1000,1000,1727,1476,1526,1840,1817,1421,1486,108,510,17088,17239,1,82.89,-7.109999999999999,,,1,1,1,1,1,1,1,0,1,1,0,0,stabilized_mix,-0.003923181444406509,1.0339170694351196,-0.008038105443120003,0.02109171263873577,-0.03582296893000603,-0.12181055545806885,0.0,0.04639999940991402,-0.02109171263873577,0.08222296833992004,0.0,0.0,0.0,0.0,0.0,0.0,0.0,0.0,0.0,0.0,0.0,-0.2394890934228897,0.0,0.0,-0.0,0.0,0.0,-0.2394890934228897,-0.38554227352142334,0.09063808619976044,13.731943130493164,-0.02806893363595009,-0.006597832776606083,0.005700891837477684,0.018751703202724457,-0.045888759195804596,0.019279006868600845,-0.040332868695259094,0.03712350130081177,-0.13736724853515625,0.06028212234377861,-2.6979832910001278e-05,13.737652778625488,7.003726005554199,6.733927249908447,1840.0,1817.0,0.0,0.0,-0.022260824218392372,0.021061832085251808,1.5256388187408447,0.027125895023345947,0.006456378847360611,0.06912247836589813,-0.027887817472219467,0.17319178581237793,-0.12056424468755722,-0.042953360825777054,0.045671455562114716,-2.6979791073244996e-05,1.0,0.13048763573169708,0.878088116645813,0,0.12155255675315857,294668280,1540,521
827477062,4,408,11178,6128,413207838,413208,406990,298,-351,11701,1335,-402,-222,88,27.328125,0.04942035675048828,-0.08534557372331619,1.0346282720565796,-2.4273359775543213,6.992102146148682,-6.2855987548828125,-0.4379311800003052,1.6490026712417603,91.35363006591797,1529,1500,1746,1500,2000,1000,1000,1000,1727,1464,1509,1841,1816,1421,1486,112,514,17088,17239,1,82.89,-7.109999999999999,,,1,1,1,1,1,1,1,0,1,1,0,0,stabilized_mix,0.07971391826868057,0.9978432655334473,-0.01908157207071781,0.020756185054779053,-0.030548181384801865,-0.1217188909649849,0.0,0.04639999940991402,-0.020756185054779053,0.07694818079471588,0.0,0.0,0.0,0.0,0.0,0.0,0.0,0.0,0.0,0.0,0.0,-0.23953627049922943,0.0,0.0,-0.0,0.0,0.0,-0.23953627049922943,-0.39532411098480225,0.10495755076408386,13.731626510620117,-0.028781363740563393,-0.007640175987035036,0.018514413386583328,0.02741868421435356,-0.032356180250644684,0.029288221150636673,-0.01404909510165453,0.056144848465919495,-0.1366279125213623,0.054852195084095,-2.8621521778404713e-05,13.737716674804688,7.011965751647949,6.72575044631958,1841.0,1816.0,0.0,0.0,-0.03330373018980026,0.006919442676007748,1.5258771181106567,0.03966126963496208,0.020949214696884155,0.06873676180839539,-0.04236500337719917,0.1220352053642273,-0.10970439016819,-0.06494292616844177,0.01589675061404705,-2.862149995053187e-05,1.0,0.18158969283103943,0.8780921697616577,0,0.12214295566082001,2210139735,1541,522
827477062,4,408,11179,6128,413211872,413212,406994,298,616,7610,-6011,-15,-135,139,27.328125,0.09855171293020248,-0.049091190099716187,0.9795024394989014,-2.8137331008911133,5.040685176849365,-3.5315911769866943,-0.4743983745574951,1.6587918996810913,91.33448028564453,1529,1500,1747,1500,2000,1000,1000,1000,1727,1458,1498,1844,1813,1421,1486,116,518,17088,17239,1,82.89,-7.109999999999999,,,1,1,1,1,1,1,1,0,1,1,0,0,stabilized_mix,0.058817483484745026,0.9169769883155823,-0.02572464570403099,0.02099165879189968,-0.026498805731534958,-0.1217329204082489,0.0,0.04639999940991402,-0.02099165879189968,0.07289880514144897,0.0,0.0,0.0,0.0,0.0,0.0,0.0,0.0,0.0,0.0,0.0,-0.24178889393806458,0.0,0.0,-0.0,0.0,0.0,-0.24178889393806458,-0.39775943756103516,0.11372224241495132,13.734566688537598,-0.028952371329069138,-0.00827634334564209,0.026702027767896652,0.031824082136154175,-0.02333207055926323,0.03394528478384018,0.0032321426551789045,0.06556682288646698,-0.13595938682556152,0.030818946659564972,-3.679911606013775e-05,13.740796089172363,7.054393768310547,6.686402797698975,1844.0,1813.0,0.0,0.0,-0.038746271282434464,-0.0023363656364381313,1.5261982679367065,0.04604150354862213,0.030201837420463562,0.06827262789011002,-0.04910890758037567,0.08797655254602432,-0.061637893319129944,-0.07584567368030548,-0.0036555549595505,-3.679915243992582e-05,1.0,0.21202778816223145,0.8782890439033508,0,0.12273575365543365,2569223227,1541,522
827477062,4,408,11180,6128,413215903,413216,406998,298,-644,6353,6409,-329,-139,127,27.328125,-0.11961331218481064,-0.042058315128088,0.9887430667877197,-3.590115547180176,9.2803955078125,-5.6757588386535645,-0.5094617009162903,1.6687511205673218,91.30795288085938,1529,1500,1747,1500,2000,1000,1000,1000,1727,1448,1522,1841,1816,1421,1486,120,522,17088,17239,1,82.89,-7.109999999999999,,,1,1,1,1,1,1,1,0,1,1,0,0,stabilized_mix,0.029814235866069794,0.858391523361206,-0.062439337372779846,0.02089432254433632,-0.022163795307278633,-0.12180481106042862,0.0,0.04639999940991402,-0.02089432254433632,0.0685637965798378,0.0,0.0,0.0,0.0,0.0,0.0,0.0,0.0,0.0,0.0,0.0,-0.24261391162872314,0.0,0.0,-0.0,0.0,0.0,-0.24261391162872314,-0.4001796841621399,0.12213677912950516,13.735552787780762,-0.029126349836587906,-0.00888801272958517,0.00933690182864666,0.03821886330842972,-0.043012551963329315,0.043312154710292816,-0.03394768387079239,0.08089704066514969,-0.13503336906433105,0.04953033849596977,-2.9926071874797344e-05,13.741923332214355,7.020592212677002,6.7213311195373535,1841.0,1816.0,0.0,0.0,-0.048081811517477036,0.017216980457305908,1.5252792835235596,0.055294595658779144,0.010549998842179775,0.06846607476472855,-0.06265933811664581,0.16197346150875092,-0.09906067699193954,-0.09355046600103378,0.03835643082857132,-2.992605914187152e-05,1.0,0.26150038838386536,0.8783610463142395,0,0.1233285516500473,2912264476,1541,522
827477062,4,408,11181,6128,413219935,413220,407002,328,201,11362,628,-321,-360,122,27.5625,0.06226085126399994,-0.11091567575931549,1.05393385887146,-4.444117546081543,5.926228046417236,-8.096622467041016,-0.558444619178772,1.7111364603042603,91.28534698486328,1529,1500,1747,1500,2000,1000,1000,1000,1727,1436,1503,1838,1819,1421,1486,124,526,17088,17239,1,82.89,-7.109999999999999,,,1,1,1,1,1,1,1,0,1,1,0,0,stabilized_mix,0.11801768094301224,0.8573751449584961,-0.07780265063047409,0.02121468260884285,-0.0186480525881052,-0.1219010278582573,0.0,0.04639999940991402,-0.02121468260884285,0.06504805386066437,0.0,0.0,0.0,0.0,0.0,0.0,0.0,0.0,0.0,0.0,0.0,-0.24486654996871948,0.0,0.0,-0.0,0.0,0.0,-0.24486654996871948,-0.4104330241680145,0.1339065134525299,13.738221168518066,-0.029866384342312813,-0.00974234938621521,0.023830611258745193,0.04670368880033493,-0.027502575889229774,0.05361378192901611,-0.004162117838859558,0.09979855269193649,-0.13424444198608398,0.07065635919570923,-2.225581556558609e-05,13.745002746582031,6.983780384063721,6.7612223625183105,1838.0,1819.0,0.0,0.0,-0.059016309678554535,0.0012621335918083787,1.5260330438613892,0.06757482886314392,0.026888977736234665,0.0677756741642952,-0.07756448537111282,0.10343219339847565,-0.14131271839141846,-0.11537114530801773,0.0046958476305007935,-2.2255828298511915e-05,1.0,0.32242321968078613,0.8785579204559326,0,0.12392134964466095,603786694,1541,522
827477062,4,408,11182,6128,413223968,413224,407006,340,4356,5038,-8700,-26,-259,287,27.65625,0.14943179488182068,-0.09321029484272003,0.9436483383178711,-5.915239334106445,4.596896171569824,-4.781802654266357,-0.5829700231552124,1.697654128074646,91.264892578125,1529,1500,1747,1500,2000,1000,1000,1000,1727,1416,1496,1843,1815,1421,1486,128,530,17088,17239,1,82.89,-7.109999999999999,,,1,1,1,1,1,1,1,0,1,1,0,0,stabilized_mix,0.04550918936729431,0.7962124943733215,-0.06656357645988464,0.021341484040021896,-0.015207907184958458,-0.12212900817394257,0.0,0.04639999940991402,-0.021341484040021896,0.061607904732227325,0.0,0.0,0.0,0.0,0.0,0.0,0.0,0.0,0.0,0.0,0.0,-0.24711918830871582,0.0,0.0,-0.0,0.0,0.0,-0.24711918830871582,-0.40729132294654846,0.1398194432258606,13.741336822509766,-0.02963118813931942,-0.010170280002057552,0.028538009151816368,0.05981920659542084,-0.02140500582754612,0.07137199491262436,0.006743517704308033,0.13117560744285583,-0.1335303783416748,0.04172910004854202,-3.2130395993590355e-05,13.748082160949707,7.034692764282227,6.713388919830322,1843.0,1815.0,0.0,0.0,-0.07743209600448608,-0.004782907199114561,1.5264787673950195,0.08655162155628204,0.0320880264043808,0.06738493591547012,-0.10324040055274963,0.08023097366094589,-0.08345820009708405,-0.15149447321891785,-0.007582320366054773,-3.2130446925293654e-05,1.0,0.4232807755470276,0.878754734992981,0,0.1245141476392746,3339412412,1541,522
827477062,4,408,11194,6139,413271355,413272,407053,320,-5257,6303,-5832,-65,181,379,27.5,0.037998542189598083,0.06943127512931824,1.0565102100372314,-13.088798522949219,4.7021613121032715,-3.7360520362854004,-0.8036923408508301,1.8621772527694702,90.92133331298828,1529,1500,1747,1500,2000,1000,1000,1000,1727,1319,1495,1843,1816,1421,1486,176,578,17088,17239,1,82.89,-7.109999999999999,,,1,1,1,1,1,1,1,0,1,1,0,0,stabilized_mix,0.01377268135547638,0.4663137197494507,-0.12170920521020889,0.022675033658742905,0.01829696074128151,-0.12423442304134369,0.0,0.04639999940991402,-0.022675033658742905,0.028103038668632507,0.0,0.0,0.0,0.0,0.0,0.0,0.0,0.0,0.0,0.0,0.0,-0.25964802503585815,0.0,0.0,0.0,0.0,0.0,-0.25964802503585815,-0.4473060071468353,0.19297735393047333,13.756586074829102,-0.03250432014465332,-0.014019669033586979,0.0314381867647171,0.12392276525497437,-0.022591445595026016,0.1582527756690979,0.008152860216796398,0.2848012447357178,-0.12153792381286621,0.03260320425033569,-3.112712875008583e-05,13.765209197998047,7.0382399559021,6.726968765258789,1843.0,1816.0,0.0,0.0,-0.16712479293346405,-0.006616476457566023,1.527223825454712,0.1791747808456421,0.034260671585798264,0.06216087192296982,-0.22844262421131134,0.08206819742918015,-0.06520640850067139,-0.3258228600025177,-0.008885732851922512,-3.112715057795867e-05,0.36308956146240234,0.9092276096343994,0.8798494935035706,4,0.13162772357463837,3466746311,1541,522
827477062,4,408,11195,6139,413275470,413276,407057,300,-543,10787,11323,-432,-500,615,27.34375,-0.10769490897655487,-0.25688624382019043,0.9702889919281006,-18.745824813842773,6.714829444885254,-12.907451629638672,-0.8485231399536133,1.8706990480422974,90.89189910888672,1529,1500,1747,1500,2000,1000,1000,1000,1727,1300,1511,1831,1828,1421,1486,180,582,17088,17239,1,82.89,-7.109999999999999,,,1,1,1,1,1,1,1,0,1,1,0,0,stabilized_mix,0.01775253564119339,0.703147292137146,0.010060939937829971,0.022126128897070885,0.01878998801112175,-0.12427330762147903,0.0,0.04639999940991402,-0.022126128897070885,0.027610011398792267,0.0,0.0,0.0,0.0,0.0,0.0,0.0,0.0,0.0,0.0,0.0,-0.25806865096092224,0.0,0.0,0.0,0.0,0.0,-0.25806865096092224,-0.44928181171417236,0.20370814204216003,13.754206657409668,-0.032653436064720154,-0.014801629818975925,0.018857162445783615,0.1713179349899292,-0.03256230801343918,0.22770604491233826,-0.017157800495624542,0.31415778398513794,-0.12051033973693848,0.11263876408338547,-2.7550850063562393e-06,13.76305103302002,6.895301342010498,6.86775016784668,1831.0,1828.0,0.0,0.0,-0.23631390929222107,0.00513699185103178,1.5248706340789795,0.24708595871925354,0.02036457508802414,0.06359796226024628,-0.32717636227607727,0.11719588190317154,-0.22527752816677094,-0.4580726623535156,0.018527371808886528,-2.7550513550522737e-06,0.0,1.278478741645813,0.8797115087509155,6,0.13222052156925201,4218698148,1541,522
827477062,4,408,11196,6139,413279425,413280,407061,296,7337,7079,-5214,-78,-399,851,27.3125,0.07683420926332474,-0.1005600243806839,0.9396588206291199,-20.305313110351562,3.4406495094299316,-4.59860897064209,-0.7817931175231934,1.8280457258224487,90.87271118164062,1529,1500,1747,1500,2000,1000,1000,1000,1727,1300,1490,1842,1818,1421,1486,184,586,17088,17239,1,82.89,-7.109999999999999,,,1,1,1,1,1,1,1,0,1,1,0,0,stabilized_mix,0.0018416009843349457,0.536902129650116,-0.027463624253869057,0.022016432136297226,0.02103886939585209,-0.12435147166252136,0.0,0.04639999940991402,-0.022016432136297226,0.025361130014061928,0.0,0.0,0.0,0.0,0.0,0.0,0.0,0.0,0.0,0.0,0.0,-0.2603212893009186,0.0,0.0,0.0,0.0,0.0,-0.2603212893009186,-0.43913960456848145,0.18773554265499115,13.757843017578125,-0.03190838545560837,-0.01363791897892952,0.03299134224653244,0.18403801321983337,-0.016678430140018463,0.24696949124336243,0.014974276535212994,0.31415778398513794,-0.11984062194824219,0.040130432695150375,-2.7898582629859447e-05,13.766130447387695,7.022558212280273,6.743572235107422,1842.0,1818.0,0.0,0.0,-0.2557969391345978,-0.011289376765489578,1.5290601253509521,0.2652878165245056,0.035631172358989716,0.06115856021642685,-0.3543945550918579,0.060050662606954575,-0.08026086539030075,-0.4955017864704132,-0.01617528311908245,-2.7898564439965412e-05,0.0,1.3826340436935425,0.8799083232879639,6,0.13281331956386566,1205527140,1541,522
827477062,4,408,11197,6139,413283454,413284,407065,320,-6282,8005,-9451,3,96,485,27.5,0.12074650079011917,0.10721983760595322,1.0836206674575806,-17.532217025756836,3.2461020946502686,-4.9487199783325195,-0.8235071301460266,1.864587664604187,90.83216857910156,1529,1500,1747,1500,2000,1000,1000,1000,1727,1300,1488,1841,1819,1421,1486,188,590,17088,17239,1,82.89,-7.109999999999999,,,1,1,1,1,1,1,1,0,1,1,0,0,stabilized_mix,0.002098049968481064,0.5998808741569519,-0.07708491384983063,0.022102568298578262,0.023658636957406998,-0.12425496429204941,0.0,0.04639999940991402,-0.022102568298578262,0.02274136245250702,0.0,0.0,0.0,0.0,0.0,0.0,0.0,0.0,0.0,0.0,0.0,-0.26257389783859253,0.0,0.0,0.0,0.0,0.0,-0.26257389783859253,-0.4480149447917938,0.19779200851917267,13.760497093200684,-0.03254655376076698,-0.014365298673510551,0.03610244393348694,0.16155079007148743,-0.015731677412986755,0.21263232827186584,0.01912561058998108,0.31415778398513794,-0.11842536926269531,0.043185729533433914,-2.6333844289183617e-05,13.769208908081055,7.016273498535156,6.752935409545898,1841.0,1819.0,0.0,0.0,-0.22189076244831085,-0.012848952785134315,1.5290063619613647,0.23322704434394836,0.0389966145157814,0.060239650309085846,-0.3059948980808258,0.056655168533325195,-0.08637145906686783,-0.43112972378730774,-0.020661422982811928,-2.6333873393014073e-05,0.0,1.2027430534362793,0.8801051378250122,6,0.1334061175584793,3150253149,1541,522
827477062,4,408,11199,6140,413291520,413292,407073,300,5639,6886,-4456,-159,-229,981,27.34375,0.09405799210071564,0.0006874352693557739,0.9620429277420044,-23.61844825744629,3.286806583404541,-3.537792205810547,-0.6785458326339722,1.837924838066101,90.7795639038086,1529,1500,1747,1500,2000,1000,1000,1000,1727,1300,1490,1843,1817,1421,1512,196,4,17088,17240,3,82.89,-7.109999999999999,91.08,1.08,1,1,1,1,1,1,1,0,1,1,0,0,stabilized_mix,0.07215187698602676,0.3766091465950012,-0.062372297048568726,0.021742738783359528,0.026270970702171326,-0.1242767795920372,0.0,0.04639999940991402,-0.021742738783359528,0.02012902870774269,0.0,0.0,0.0,0.0,0.0,0.0,0.0,0.0,0.0,0.0,0.0,-0.2632583975791931,0.0,0.0,0.0,0.0,0.0,-0.2632583975791931,-0.441640704870224,0.16299016773700714,13.76209545135498,-0.032080087810754776,-0.011836765334010124,0.03301530331373215,0.20984959602355957,-0.015928218141198158,0.28824788331985474,0.01588747277855873,0.31415778398513794,-0.11658930778503418,0.03087306022644043,-3.000069409608841e-05,13.77014446258545,7.035075664520264,6.7350687980651855,1843.0,1817.0,0.0,0.0,-0.29595503211021423,-0.012225549668073654,1.5298352241516113,0.3020709156990051,0.03566565364599228,0.05953092873096466,-0.41221967339515686,0.057365596294403076,-0.06174612045288086,-0.5712530612945557,-0.017166782170534134,-3.0000685001141392e-05,0.0,1.593543529510498,0.8801649212837219,6,0.1345917135477066,1402812549,1542,523
827477062,4,408,11200,6140,413295633,413296,407077,320,-8387,9754,-8033,73,132,612,27.5,0.10592377185821533,0.1496693193912506,1.119223713874817,-20.933740615844727,2.1909098625183105,-4.509918212890625,-0.6574034690856934,1.8509799242019653,90.74018859863281,1529,1500,1747,1500,2000,1000,1000,1000,1727,1300,1483,1841,1819,1421,1512,200,8,17088,17240,3,82.89,-7.109999999999999,91.08,1.08,1,1,1,1,1,1,1,0,1,1,0,0,stabilized_mix,0.012520764023065567,0.39467495679855347,-0.13236401975154877,0.02139871008694172,0.02549752965569496,-0.12436895817518234,0.0,0.04639999940991402,-0.02139871008694172,0.020902469754219055,0.0,0.0,0.0,0.0,0.0,0.0,0.0,0.0,0.0,0.0,0.0,-0.26435747742652893,0.0,0.0,0.0,0.0,0.0,-0.26435747742652893,-0.44482529163360596,0.1579279750585556,13.763556480407715,-0.03230781853199005,-0.011467866599559784,0.039033785462379456,0.18686866760253906,-0.010616816580295563,0.2546777129173279,0.02706155739724636,0.31415778398513794,-0.11521482467651367,0.03935645893216133,-2.6550376787781715e-05,13.771647453308105,7.018575668334961,6.7530717849731445,1841.0,1819.0,0.0,0.0,-0.2620930075645447,-0.017317408695816994,1.5307530164718628,0.26942992210388184,0.042168907821178436,0.05815298110246658,-0.3653627038002014,0.038238588720560074,-0.07871291786432266,-0.507681667804718,-0.029240699484944344,-2.6550427719485015e-05,0.0,1.4160528182983398,0.8802610039710999,6,0.13518451154232025,1718246609,1542,523
827477062,4,408,11201,6140,413299587,413300,407081,304,4008,6716,12367,-228,-643,743,27.375,-0.1353229582309723,-0.24031037092208862,0.9165395498275757,-24.854337692260742,5.434537410736084,-14.03747272491455,-0.6097079515457153,1.85395085811615,90.70963287353516,1529,1500,1747,1500,2000,1000,1000,1000,1727,1300,1507,1829,1831,1421,1512,204,12,17088,17240,3,82.89,-7.109999999999999,91.08,1.08,1,1,1,1,1,1,1,0,1,1,0,0,stabilized_mix,0.0034070387482643127,0.42323434352874756,-0.03186563402414322,0.02156274951994419,0.026542827486991882,-0.12459688633680344,0.0,0.04639999940991402,-0.02156274951994419,0.019857171922922134,0.0,0.0,0.0,0.0,0.0,0.0,0.0,0.0,0.0,0.0,0.0,-0.2666100859642029,0.0,0.0,0.0,0.0,0.0,-0.2666100859642029,-0.44563859701156616,0.1465030312538147,13.76673698425293,-0.032359376549720764,-0.010635839775204659,0.020431887358427048,0.21791017055511475,-0.02633051574230194,0.3036956191062927,-0.010875674895942211,0.31415778398513794,-0.11414813995361328,0.12250005453824997,2.923188731074333e-06,13.774726867675781,6.872747421264648,6.901979446411133,1829.0,1831.0,0.0,0.0,-0.3096519112586975,0.0010649488540366292,1.5257669687271118,0.31359851360321045,0.02208353951573372,0.06060388684272766,-0.43379002809524536,0.0948505699634552,-0.24500010907649994,-0.5967338681221008,0.01175464317202568,2.923170086432947e-06,0.0,1.6640700101852417,0.8804578185081482,6,0.1357773095369339,2551339896,1542,523
827477062,4,408,11202,6140,413303623,413304,407085,310,3855,7247,-6149,-160,-80,952,27.421875,0.13093917071819305,0.06780432909727097,0.9788205027580261,-24.318740844726562,2.1840176582336426,-1.6443238258361816,-0.4308839440345764,1.85450279712677,90.69264221191406,1529,1500,1747,1500,2000,1000,1000,1000,1727,1300,1482,1845,1815,1421,1512,208,16,17088,17240,3,82.89,-7.109999999999999,91.08,1.08,1,1,1,1,1,1,1,0,1,1,0,0,stabilized_mix,0.0481007881462574,0.07347120344638824,-0.12040212005376816,0.021534660831093788,0.02726193331182003,-0.12493284791707993,0.0,0.04639999940991402,-0.021534660831093788,0.019138066098093987,0.0,0.0,0.0,0.0,0.0,0.0,0.0,0.0,0.0,0.0,0.0,-0.2688627243041992,0.0,0.0,0.0,0.0,0.0,-0.2688627243041992,-0.44587084650993347,0.10355859249830246,13.7701997756958,-0.032368093729019165,-0.007516404613852501,0.038679055869579315,0.21074840426445007,-0.010578466579318047,0.29688137769699097,0.027524147182703018,0.31415778398513794,-0.1135549545288086,0.014349432662129402,-3.472191747277975e-05,13.77780532836914,7.062511920928955,6.715292930603027,1845.0,1815.0,0.0,0.0,-0.3016369640827179,-0.018031155690550804,1.531717300415039,0.3035147190093994,0.041805654764175415,0.05726354941725731,-0.4244420826435089,0.03811829909682274,-0.028698865324258804,-0.5823100209236145,-0.029753196984529495,-3.472193202469498e-05,0.0,1.6234843730926514,0.8806545734405518,6,0.13637010753154755,1362356219,1542,523
827477062,4,408,11204,6141,413311691,413312,407093,310,4682,8760,9073,-169,-539,752,27.421875,-0.08112142235040665,-0.11719850450754166,0.9392483830451965,-25.137800216674805,4.650423526763916,-10.252236366271973,-0.1871684491634369,1.8433722257614136,90.64302825927734,1529,1500,1747,1500,2000,1000,1000,1000,1727,1300,1501,1834,1827,1421,1512,216,24,17088,17240,3,82.89,-7.109999999999999,91.08,1.08,1,1,1,1,1,1,1,0,1,1,0,0,stabilized_mix,0.025170758366584778,-0.14373986423015594,-0.08268968015909195,0.02110186778008938,0.024869440123438835,-0.1256745159626007,0.0,0.04639999940991402,-0.02110186778008938,0.02153055928647518,0.0,0.0,0.0,0.0,0.0,0.0,0.0,0.0,0.0,0.0,0.0,-0.27394816279411316,0.0,0.0,0.0,0.0,0.0,-0.27394816279411316,-0.44341927766799927,0.045007359236478806,13.777549743652344,-0.03217308595776558,-0.0032650150824338198,0.0245232991874218,0.21187973022460938,-0.022512350231409073,0.30704164505004883,-0.0016670043114572763,0.31415778398513794,-0.11182332038879395,0.08946763724088669,-7.824506610631943e-06,13.784756660461426,6.931501388549805,6.8532562255859375,1834.0,1827.0,0.0,0.0,-0.3080885112285614,-0.0034362601581960917,1.5272011756896973,0.30527251958847046,0.02652326598763466,0.0588260181248188,-0.4387373626232147,0.08116520196199417,-0.17893527448177338,-0.594472348690033,0.0018026032485067844,-7.824488420737907e-06,0.0,1.6565572023391724,0.8810989260673523,6,0.13755570352077484,405833075,1542,523
827477062,4,408,11216,6152,413359108,413360,407140,312,1607,5835,5709,-105,-307,675,27.4375,-0.0061697885394096375,0.1084863692522049,0.9532723426818848,-22.385601043701172,-0.5037850141525269,-4.66214656829834,1.645114779472351,1.588474154472351,90.4661865234375,1529,1500,1747,1500,2000,1000,1000,1000,1727,1300,1473,1841,1821,1421,1512,264,72,17088,17240,2,,,91.08,1.08,1,1,1,1,1,1,1,0,1,1,0,0,stabilized_mix,-0.06467274576425552,-0.9891499280929565,-0.1713474690914154,0.015641208738088608,-0.012376455590128899,-0.1321588009595871,0.0,0.04639999940991402,-0.015641208738088608,0.058776453137397766,0.0,0.0,0.0,0.0,0.0,0.0,0.0,0.0,0.0,0.0,0.0,-0.28099462389945984,0.0,0.0,0.0,0.0,0.0,-0.28099462389945984,-0.38238808512687683,-0.39586713910102844,13.783406257629395,-0.027735527604818344,0.028701627627015114,0.041552864015102386,0.15242844820022583,0.002436390845105052,0.2723137140274048,0.04250441491603851,0.31415778398513794,-0.10565018653869629,0.04068490490317345,-2.2737891413271427e-05,13.794389724731445,7.0108842849731445,6.783505439758301,1841.0,1821.0,0.0,0.0,-0.25145962834358215,-0.024574173614382744,1.532420039176941,0.2205677628517151,0.044964298605918884,0.0529896505177021,-0.39070242643356323,-0.00879270676523447,-0.0813698098063469,-0.489052414894104,-0.04599187523126602,-2.273784593853634e-05,0.0,1.3618422746658325,0.8817146420478821,6,0.1446692794561386,2200203552,1542,523
827477062,4,408,11217,6152,413363131,413364,407144,314,132,4060,3495,198,-34,767,27.453125,-0.05470304936170578,0.1465720385313034,0.9345688223838806,-22.001827239990234,-3.0529112815856934,-0.9135963320732117,1.8698537349700928,1.5243619680404663,90.46154022216797,1529,1500,1747,1500,2000,1000,1000,1000,1727,1300,1458,1846,1816,1421,1512,268,76,17088,17240,2,,,91.08,1.08,1,1,1,1,1,1,1,0,1,1,0,0,stabilized_mix,-0.08878761529922485,-1.1869672536849976,-0.24065952003002167,0.015322818420827389,-0.016796818003058434,-0.1329849660396576,0.0,0.04639999940991402,-0.015322818420827389,0.0631968155503273,0.0,0.0,0.0,0.0,0.0,0.0,0.0,0.0,0.0,0.0,0.0,-0.2832472622394562,0.0,0.0,0.0,0.0,0.0,-0.2832472622394562,-0.36704021692276,-0.45004257559776306,13.785243034362793,-0.02661930024623871,0.032623548060655594,0.0517202764749527,0.1448160707950592,0.014765751548111439,0.26746970415115356,0.06622356921434402,0.31415778398513794,-0.10548806190490723,0.007972631603479385,-3.4130411222577095e-05,13.797469139099121,7.0693864822387695,6.728082180023193,1846.0,1816.0,0.0,0.0,-0.24398227035999298,-0.036369264125823975,1.5351592302322388,0.2096777856349945,0.05596864968538284,0.051621612161397934,-0.3840043246746063,-0.05328335240483284,-0.01594526320695877,-0.47498875856399536,-0.07164352387189865,-3.4130400308640674e-05,0.0,1.3223847150802612,0.8819114565849304,6,0.14526207745075226,3240092,1542,523
827477062,4,408,11218,6152,413367164,413368,407148,318,-7550,13945,-9102,7,274,643,27.484375,0.10668876022100449,0.3365420699119568,1.1675623655319214,-19.46063232421875,0.6594296097755432,2.310098648071289,2.0905816555023193,1.516420602798462,90.45463562011719,1529,1500,1747,1500,2000,1000,1000,1000,1727,1300,1478,1850,1812,1385,1512,3,80,17089,17240,3,79.64999999999999,-10.35,91.08,1.08,1,1,1,1,1,1,1,0,1,1,0,0,stabilized_mix,-0.052588168531656265,-1.363594651222229,-0.3341563642024994,0.014693466946482658,-0.02166050113737583,-0.1338285356760025,0.0,0.04639999940991402,-0.014693466946482658,0.068060502409935,0.0,0.0,0.0,0.0,0.0,0.0,0.0,0.0,0.0,0.0,0.0,-0.282231867313385,0.0,0.0,0.0,0.0,0.0,-0.282231867313385,-0.36509180068969727,-0.5030970573425293,13.78207015991211,-0.026484152302145958,0.03647475317120552,0.03690539300441742,0.11875038594007492,-0.00318899960257113,0.2359727919101715,0.034355148673057556,0.31415778398513794,-0.10524702072143555,-0.020159414038062096,-4.389230161905289e-05,13.79608154296875,7.117502689361572,6.678579330444336,1850.0,1812.0,0.0,0.0,-0.20982010662555695,-0.01996046118438244,1.530358076095581,0.17211729288101196,0.03994332253932953,0.053471632301807404,-0.33965209126472473,0.011509217321872711,0.04031882807612419,-0.4094390571117401,-0.03718417510390282,-4.389224704937078e-05,0.0,1.1400066614151,0.8818227648735046,4,0.1458548754453659,3119754663,1542,523
827477062,4,408,11219,6152,413371174,413372,407152,306,689,8289,5866,-122,-331,565,27.390625,-0.03442166745662689,0.12723615765571594,0.9835146069526672,-19.561077117919922,-1.2425689697265625,-5.080567359924316,2.3233606815338135,1.518898367881775,90.44923400878906,1529,1500,1747,1500,2000,1000,1000,1000,1727,1300,1470,1840,1822,1385,1512,7,84,17089,17240,3,79.64999999999999,-10.35,91.08,1.08,1,1,1,1,1,1,1,0,1,1,0,0,stabilized_mix,-0.038647301495075226,-1.428073525428772,-0.22528515756130219,0.01461808942258358,-0.02730073593556881,-0.13483302295207977,0.0,0.04639999940991402,-0.01461808942258358,0.07370073348283768,0.0,0.0,0.0,0.0,0.0,0.0,0.0,0.0,0.0,0.0,0.0,-0.28448450565338135,0.0,0.0,0.0,0.0,0.0,-0.28448450565338135,-0.3657698333263397,-0.5592100620269775,13.78297233581543,-0.026531578972935677,0.04053603485226631,0.04319710284471512,0.11497775465250015,0.00600768718868494,0.23715922236442566,0.047794245183467865,0.31415778398513794,-0.10505843162536621,0.044336315244436264,-2.125278115272522e-05,13.799160957336426,7.005844593048096,6.793316841125488,1840.0,1822.0,0.0,0.0,-0.20825187861919403,-0.026692889630794525,1.531747579574585,0.16671112179756165,0.04675889015197754,0.05290161073207855,-0.3414052128791809,-0.021686919033527374,-0.08867263048887253,-0.40659046173095703,-0.05173162370920181,-2.1252739315968938e-05,0.0,1.1318225860595703,0.882019579410553,4,0.14644767343997955,2924651277,1542,523
827477062,4,408,11221,6153,413379242,413380,407160,318,-9711,14249,-8223,68,441,561,27.484375,0.09840933233499527,0.3544771075248718,1.1730982065200806,-16.724550247192383,-1.0630574226379395,3.9040322303771973,2.7394042015075684,1.4536117315292358,90.44339752197266,1527,1500,1746,1500,2000,1000,1000,1000,1727,1317,1469,1852,1811,1385,1512,15,92,17089,17240,3,79.64999999999999,-10.35,91.08,1.08,1,1,1,1,1,1,1,0,1,1,0,0,stabilized_mix,-0.020797785371541977,-1.6237804889678955,-0.3780601918697357,0.01384098082780838,-0.039055369794368744,-0.13690480589866638,0.0,0.04320000112056732,-0.01384098082780838,0.08225537091493607,0.0,0.0,0.0,0.0,0.0,0.0,0.0,0.0,0.0,0.0,0.0,-0.2868519723415375,0.0,0.0,0.0,0.0,0.0,-0.2868519723415375,-0.3501335382461548,-0.6594513058662415,13.782187461853027,-0.02539932355284691,0.04779622703790665,0.042770467698574066,0.08272343128919601,0.005096886307001114,0.2022036612033844,0.04879612475633621,0.28733956813812256,-0.10485482215881348,-0.034069109708070755,-4.862342029809952e-05,13.802396774291992,7.144315242767334,6.6580810546875,1852.0,1811.0,0.0,0.0,-0.16831637918949127,-0.026925064623355865,1.5306823253631592,0.12009929120540619,0.04669457674026489,0.053077131509780884,-0.2918984591960907,-0.018553851172327995,0.06813821941614151,-0.3295341432094574,-0.05326813459396362,-4.8623373004375026e-05,0.3315739631652832,0.9171065092086792,0.8822264075279236,4,0.14762969315052032,796183498,1543,524
827477062,4,408,11222,6153,413383274,413384,407164,304,-2416,11514,9302,-151,-315,543,27.375,-0.10850968211889267,0.08790998160839081,1.022347092628479,-18.624317169189453,-1.1435458660125732,-5.322436332702637,2.907252311706543,1.4481172561645508,90.44104766845703,1527,1500,1746,1500,2000,1000,1000,1000,1727,1300,1472,1840,1823,1385,1512,19,96,17089,17240,3,79.64999999999999,-10.35,91.08,1.08,1,1,1,1,1,1,1,0,1,1,0,0,stabilized_mix,-0.03429026156663895,-1.4720149040222168,-0.26557281613349915,0.013918942771852016,-0.04524413123726845,-0.13806581497192383,0.0,0.04320000112056732,-0.013918942771852016,0.08844412863254547,0.0,0.0,0.0,0.0,0.0,0.0,0.0,0.0,0.0,0.0,0.0,-0.28909555077552795,0.0,0.0,0.0,0.0,0.0,-0.28909555077552795,-0.3488878905773163,-0.699980616569519,13.783293724060059,-0.02530697174370289,0.050724904984235764,0.040594130754470825,0.09519901126623154,0.0055283186957240105,0.22549617290496826,0.0447143092751503,0.31415778398513794,-0.10477280616760254,0.0464470200240612,-2.0414008758962154e-05,13.805464744567871,7.004802703857422,6.800662517547607,1840.0,1823.0,0.0,0.0,-0.18955034017562866,-0.024908123537898064,1.5308858156204224,0.13818982243537903,0.04396335035562515,0.053112924098968506,-0.32505565881729126,-0.01995863951742649,-0.0928940400481224,-0.37069031596183777,-0.048421528190374374,-2.0414025129866786e-05,0.0,1.0314165353775024,0.8824225068092346,4,0.14822010695934296,4105985793,1543,524
827477062,4,408,11223,6153,413387335,413388,407168,332,7509,1429,-1268,207,-256,697,27.59375,0.015988789498806,0.10994493961334229,0.9161542057991028,-18.675121307373047,-4.351288795471191,0.3375236988067627,3.1365630626678467,1.3706738948822021,90.44756317138672,1527,1500,1746,1500,2000,1000,1000,1000,1727,1300,1453,1848,1815,1385,1512,23,100,17089,17240,3,79.64999999999999,-10.35,91.08,1.08,1,1,1,1,1,1,1,0,1,1,0,0,stabilized_mix,-0.06819628179073334,-1.63250732421875,-0.35195761919021606,0.013112036511301994,-0.051080115139484406,-0.13938051462173462,0.0,0.04320000112056732,-0.013112036511301994,0.09428011626005173,0.0,0.0,0.0,0.0,0.0,0.0,0.0,0.0,0.0,0.0,0.0,-0.2899537980556488,0.0,0.0,0.0,0.0,0.0,-0.2899537980556488,-0.33026155829429626,-0.7552279829978943,13.782010078430176,-0.02395864948630333,0.054727669805288315,0.05322548747062683,0.09118430316448212,0.021031100302934647,0.22610259056091309,0.07438722252845764,0.31415778398513794,-0.10500025749206543,-0.0029454499017447233,-3.778096288442612e-05,13.80663776397705,7.092223644256592,6.714414119720459,1848.0,1815.0,0.0,0.0,-0.187371164560318,-0.039804309606552124,1.5336521863937378,0.13239191472530365,0.057634152472019196,0.0521586611866951,-0.32594236731529236,-0.07594431191682816,0.005890899803489447,-0.36664479970932007,-0.08051469922065735,-3.778099562623538e-05,0.0,1.0200735330581665,0.8824974894523621,4,0.1488093137741089,4004650027,1543,524
827477062,4,408,11224,6153,413391339,413392,407172,316,-9516,11738,-7400,119,443,458,27.46875,0.04544568806886673,0.38035523891448975,1.1591304540634155,-14.86685562133789,-2.751084566116333,3.828281879425049,3.2814624309539795,1.331160068511963,90.43822479248047,1527,1500,1746,1500,2000,1000,1000,1000,1727,1349,1462,1852,1811,1385,1512,27,104,17089,17240,3,79.64999999999999,-10.35,91.08,1.08,1,1,1,1,1,1,1,0,1,1,0,0,stabilized_mix,-0.15829385817050934,-1.6302146911621094,-0.435665100812912,0.012738430872559547,-0.056963223963975906,-0.14058248698711395,0.0,0.04320000112056732,-0.012738430872559547,0.10016322135925293,0.0,0.0,0.0,0.0,0.0,0.0,0.0,0.0,0.0,0.0,0.0,-0.2921973764896393,0.0,0.0,0.0,0.0,0.0,-0.2921973764896393,-0.32081371545791626,-0.7902681827545166,13.783340454101562,-0.023271266371011734,0.057256847620010376,0.04574255645275116,0.056283868849277496,0.013006468303501606,0.1793857216835022,0.05956035107374191,0.23674458265304565,-0.1046743392944336,-0.03340806066989899,-4.832888953387737e-05,13.809703826904297,7.146496295928955,6.663207530975342,1852.0,1811.0,0.0,0.0,-0.13906069099903107,-0.032464198768138885,1.5306506156921387,0.08180694282054901,0.05064566805958748,0.052935391664505005,-0.25947558879852295,-0.04801548272371292,0.06681612133979797,-0.27286356687545776,-0.06592843681573868,-4.8328838602174073e-05,0.9640471935272217,0.7589882016181946,0.8826934695243835,4,0.14939972758293152,3898287561,1543,524
827477062,4,408,11226,6154,413399406,413400,407180,302,6914,4254,-4018,138,-150,723,27.359375,0.04089020937681198,0.1416628062725067,0.9606143832206726,-17.911312103271484,-3.6923162937164307,1.7064571380615234,3.6739954948425293,1.2162801027297974,90.43990325927734,1527,1500,1746,1500,2000,1000,1000,1000,1727,1314,1459,1850,1814,1385,1512,35,112,17089,17240,3,79.64999999999999,-10.35,91.08,1.08,1,1,1,1,1,1,1,0,1,1,0,0,stabilized_mix,-0.2064719796180725,-1.6731643676757812,-0.4159775972366333,0.010820193216204643,-0.06766984611749649,-0.1435273140668869,0.0,0.04320000112056732,-0.010820193216204643,0.11086984723806381,0.0,0.0,0.0,0.0,0.0,0.0,0.0,0.0,0.0,0.0,0.0,-0.29445701837539673,0.0,0.0,0.0,0.0,0.0,-0.29445701837539673,-0.29319724440574646,-0.884915828704834,13.78130054473877,-0.02127179689705372,0.06410884857177734,0.04562990367412567,0.07377123832702637,0.017718661576509476,0.21660631895065308,0.06380755454301834,0.2926989197731018,-0.10473275184631348,-0.01489164773374796,-4.186853766441345e-05,13.812793731689453,7.115739345550537,6.697053909301758,1850.0,1814.0,0.0,0.0,-0.17137305438518524,-0.034506503492593765,1.532078504562378,0.10720962285995483,0.04977200925350189,0.05250345543026924,-0.3126113712787628,-0.06444307416677475,0.02978329546749592,-0.33575958013534546,-0.06957651674747467,-4.186853766441345e-05,0.26508450508117676,0.9337288737297058,0.8828909993171692,4,0.15058055520057678,3879399305,1543,524
827477062,4,408,11239,6166,413451861,413452,407232,308,-11316,6567,2764,341,459,-200,27.40625,-0.06497148424386978,0.43546605110168457,1.0587022304534912,3.197873115539551,-7.337625980377197,6.1187872886657715,5.7158355712890625,0.5580508708953857,90.5394058227539,1527,1500,1747,1500,2000,1000,1000,1000,1727,1615,1450,1857,1809,1385,1512,87,164,17089,17240,3,79.64999999999999,-10.35,91.08,1.08,1,1,1,1,1,1,1,0,1,1,0,0,stabilized_mix,-0.28925126791000366,-1.7245615720748901,-0.3653324246406555,-0.00010640140681061894,-0.13622984290122986,-0.15965650975704193,0.0,0.04320000112056732,0.00010640140681061894,0.17942984402179718,0.0,0.0,0.0,0.0,0.0,0.0,0.0,0.0,0.0,0.0,0.0,-0.3130197525024414,0.0,0.0,0.0,0.0,0.0,-0.3130197525024414,-0.1347791999578476,-1.3781437873840332,13.768712997436523,-0.00978848896920681,0.09975540637969971,0.04380590468645096,-0.14099547266960144,0.034213729202747345,-0.038309939205646515,0.07780752331018448,-0.1803995966911316,-0.10820603370666504,-0.05339649319648743,-5.656084977090359e-05,13.838168144226074,7.201888561248779,6.636280059814453,1857.0,1809.0,0.0,0.0,0.10765838623046875,-0.03954199701547623,1.521835207939148,-0.20478367805480957,0.04918637126684189,0.05781358852982521,0.05581341311335564,-0.12806573510169983,0.10679298639297485,0.2091703861951828,-0.08730419725179672,-5.656088251271285e-05,0.9874440431594849,0.5806246995925903,0.8845129013061523,2,0.15828096866607666,1741192279,1543,524
827477062,4,408,11240,6166,413455869,413456,407236,318,-2000,13739,2078,101,-102,-60,27.484375,-0.036664847284555435,0.07078316807746887,1.0471466779708862,0.8762107491493225,-5.187870025634766,-0.5640813112258911,5.797102928161621,0.5230107307434082,90.55365753173828,1527,1500,1747,1500,2000,1000,1000,1000,1727,1585,1463,1848,1817,1385,1512,91,168,17089,17240,3,79.64999999999999,-10.35,91.08,1.08,1,1,1,1,1,1,1,0,1,1,0,0,stabilized_mix,-0.21862567961215973,-1.5651838779449463,-0.26749905943870544,-0.0010380205931141973,-0.13743138313293457,-0.16067326068878174,0.0,0.04320000112056732,0.0010380205931141973,0.1806313842535019,0.0,0.0,0.0,0.0,0.0,0.0,0.0,0.0,0.0,0.0,0.0,-0.31357908248901367,0.0,0.0,0.0,0.0,0.0,-0.31357908248901367,-0.1263236105442047,-1.397756814956665,13.767583847045898,-0.009175180457532406,0.10117430984973907,0.03332210332155228,-0.12342662364244461,0.024007979780435562,-0.010494576767086983,0.05736004561185837,-0.13396793603897095,-0.10870361328125,0.004922538064420223,-3.6323326639831066e-05,13.838932037353516,7.101082801818848,6.737849712371826,1848.0,1817.0,0.0,0.0,0.08000163733959198,-0.029366621747612953,1.5237536430358887,-0.1794150173664093,0.03769810497760773,0.05683355778455734,0.015292762778699398,-0.0905454158782959,-0.009845076128840446,0.15572108328342438,-0.06486935913562775,-3.632337393355556e-05,1.0,0.4322337806224823,0.8845617175102234,0,0.1588737666606903,2358391794,1543,524
827477062,4,408,11241,6166,413459899,413460,407240,326,3386,5407,-4762,158,146,-57,27.546875,0.06094467639923096,0.2520495653152466,0.9317992329597473,4.083413600921631,-8.370952606201172,8.275336265563965,5.953793048858643,0.4742852747440338,90.58221435546875,1527,1500,1747,1500,2000,1000,1000,1000,1727,1630,1446,1861,1806,1385,1512,95,172,17089,17240,3,79.64999999999999,-10.35,91.08,1.08,1,1,1,1,1,1,1,0,1,1,0,0,stabilized_mix,-0.19059067964553833,-1.694931983947754,-0.3024464547634125,-0.0017656439449638128,-0.1431269496679306,-0.16184964776039124,0.0,0.04320000112056732,0.0017656439449638128,0.18632695078849792,0.0,0.0,0.0,0.0,0.0,0.0,0.0,0.0,0.0,0.0,0.0,-0.31583172082901,0.0,0.0,0.0,0.0,0.0,-0.31583172082901,-0.1145806536078453,-1.4357328414916992,13.766876220703125,-0.008322731591761112,0.10390972346067429,0.04568742960691452,-0.15298929810523987,0.039199165999889374,-0.04891357570886612,0.0844947099685669,-0.20360824465751648,-0.10970044136047363,-0.07221592962741852,-6.367068272083998e-05,13.842013359069824,7.239360332489014,6.602653503417969,1861.0,1806.0,0.0,0.0,0.1214788630604744,-0.04266977682709694,1.5209001302719116,-0.22213658690452576,0.05108151584863663,0.05916985124349594,0.07126901298761368,-0.14610068500041962,0.14443185925483704,0.23579327762126923,-0.09439035505056381,-6.367072637658566e-05,0.909115195274353,0.654343843460083,0.8847586512565613,2,0.15946656465530396,2974602582,1543,524
827477062,4,408,11242,6166,413463935,413464,407244,326,-7799,6073,5799,445,496,-297,27.546875,-0.11374020576477051,0.3197918236255646,1.010644555091858,5.902693748474121,-9.132369995117188,7.072615146636963,6.012996196746826,0.41473308205604553,90.59896087646484,1527,1500,1747,1500,2000,1000,1000,1000,1727,1654,1442,1860,1808,1385,1512,99,176,17089,17240,3,79.64999999999999,-10.35,91.08,1.08,1,1,1,1,1,1,1,0,1,1,0,0,stabilized_mix,-0.21924278140068054,-1.5572245121002197,-0.332548052072525,-0.0023549769539386034,-0.1484801322221756,-0.1629069745540619,0.0,0.04320000112056732,0.0023549769539386034,0.19168013334274292,0.0,0.0,0.0,0.0,0.0,0.0,0.0,0.0,0.0,0.0,0.0,-0.31808435916900635,0.0,0.0,0.0,0.0,0.0,-0.31808435916900635,-0.10021623969078064,-1.4502912759780884,13.768556594848633,-0.007278502453118563,0.10494382679462433,0.047851771116256714,-0.16879644989967346,0.043129995465278625,-0.07072005420923233,0.09049161523580551,-0.24186423420906067,-0.11028504371643066,-0.06172021105885506,-6.02018553763628e-05,13.845091819763184,7.223555088043213,6.621536731719971,1860.0,1808.0,0.0,0.0,0.1440887302160263,-0.04509839788079262,1.5195664167404175,-0.24493560194969177,0.05304893106222153,0.060113273561000824,0.10302144289016724,-0.159389927983284,0.12344042211771011,0.27936220169067383,-0.10022179782390594,-6.0201837186468765e-05,0.8060915470123291,0.775078535079956,0.8849554061889648,6,0.1600593626499176,4273306606,1543,524
827477062,4,408,11243,6166,413467968,413468,407248,320,-3379,11940,103,140,-4,-142,27.5,-0.00932215340435505,0.12873345613479614,1.0349414348602295,4.313211441040039,-6.106866836547852,4.242044448852539,6.060347557067871,0.3492569625377655,90.63044738769531,1527,1500,1747,1500,2000,1000,1000,1000,1727,1633,1461,1855,1811,1385,1512,103,180,17089,17240,3,79.64999999999999,-10.35,91.08,1.08,1,1,1,1,1,1,1,0,1,1,0,0,stabilized_mix,-0.2217433601617813,-1.394485592842102,-0.2997283339500427,-0.0030649190302938223,-0.14833161234855652,-0.16400550305843353,0.0,0.04320000112056732,0.0030649190302938223,0.19153161346912384,0.0,0.0,0.0,0.0,0.0,0.0,0.0,0.0,0.0,0.0,0.0,-0.31790632009506226,0.0,0.0,0.0,0.0,0.0,-0.31790632009506226,-0.08439329266548157,-1.4616550207138062,13.767216682434082,-0.006129941437393427,0.10577104240655899,0.0330057218670845,-0.15673795342445374,0.028624296188354492,-0.05165795981884003,0.06140591949224472,-0.20960509777069092,-0.11138415336608887,-0.03701882064342499,-5.1941024139523506e-05,13.8448486328125,7.182129383087158,6.662719249725342,1855.0,1811.0,0.0,0.0,0.12483198195695877,-0.03049451857805252,1.5222816467285156,-0.22758141160011292,0.036869797855615616,0.058727480471134186,0.07527974247932434,-0.10658492892980576,0.07403764128684998,0.2426886111497879,-0.06856297701597214,-5.1941038691438735e-05,0.8972782492637634,0.6733410358428955,0.8849399089813232,2,0.16065216064453125,2115553064,1544,525
