magic,version,size,sequence,dropped_records,timestamp_us,tick_ms,imu_sequence,raw_temperature,raw_accel_x,raw_accel_y,raw_accel_z,raw_gyro_x,raw_gyro_y,raw_gyro_z,temperature_c,accel_x_g,accel_y_g,accel_z_g,gyro_x_dps,gyro_y_dps,gyro_z_dps,roll_deg,pitch_deg,yaw_deg,rc_ch1_us,rc_ch2_us,rc_ch3_us,rc_ch4_us,rc_ch5_us,rc_ch6_us,rc_ch7_us,rc_ch8_us,throttle_us,servo_alpha_us,servo_beta_us,motor_upper_us,motor_lower_us,servo_alpha_feedback_us,servo_beta_feedback_us,servo_alpha_feedback_age_ms,servo_beta_feedback_age_ms,servo_alpha_feedback_sequence,servo_beta_feedback_sequence,servo_feedback_valid_mask,servo_alpha_feedback_deg,servo_alpha_feedback_tilt_deg,servo_beta_feedback_deg,servo_beta_feedback_tilt_deg,rc_armed,rc_link_ok,throttle_over_20,imu_valid,motor_output_reason,rc_link_seen,arm_switch_high,arm_throttle_low,arm_switch_seen_low,arm_switch_prev_high,imu_fault_latched,imu_fault_reason,motor_output_reason_name,acc_nav_m_s2_0,acc_nav_m_s2_1,acc_nav_m_s2_2,vel_est_m_s_0,vel_est_m_s_1,vel_est_m_s_2,vel_ref_m_s_0,vel_ref_m_s_1,vel_err_m_s_0,vel_err_m_s_1,vel_pid_out_m_s2_0,vel_pid_out_m_s2_1,vel_pid_p_m_s2_0,vel_pid_p_m_s2_1,vel_pid_i_m_s2_0,vel_pid_i_m_s2_1,vel_pid_d_m_s2_0,vel_pid_d_m_s2_1,vel_loop_active,ctrl_pos_p_m_s2_0,ctrl_pos_p_m_s2_1,ctrl_pos_p_m_s2_2,ctrl_vel_d_m_s2_0,ctrl_vel_d_m_s2_1,ctrl_vel_d_m_s2_2,ctrl_accel_out_m_s2_0,ctrl_accel_out_m_s2_1,ctrl_accel_out_m_s2_2,ctrl_force_cmd_n_0,ctrl_force_cmd_n_1,ctrl_force_cmd_n_2,ctrl_tilt_ff_rad_0,ctrl_tilt_ff_rad_1,ctrl_tilt_angle_p_rad_0,ctrl_tilt_angle_p_rad_1,ctrl_tilt_rate_d_rad_0,ctrl_tilt_rate_d_rad_1,ctrl_tilt_out_rad_0,ctrl_tilt_out_rad_1,ctrl_yaw_angle_p_rad_s,ctrl_yaw_rate_d_rad_s,ctrl_yaw_torque_cmd,ctrl_total_force_n,ctrl_motor_thrust_cmd_n_0,ctrl_motor_thrust_cmd_n_1,ctrl_motor_cmd_us_0,ctrl_motor_cmd_us_1,ctrl_velocity_integral_m_0,ctrl_velocity_integral_m_1,ctrl_desired_attitude_rpy_rad_0,ctrl_desired_attitude_rpy_rad_1,ctrl_desired_attitude_rpy_rad_2,ctrl_attitude_error_0,ctrl_attitude_error_1,ctrl_attitude_error_2,ctrl_rate_error_rad_s_0,ctrl_rate_error_rad_s_1,ctrl_rate_error_rad_s_2,ctrl_moment_cmd_n_m_0,ctrl_moment_cmd_n_m_1,ctrl_moment_cmd_n_m_2,ctrl_horizontal_command_scale,ctrl_moment_utilization,ctrl_thrust_utilization,ctrl_protection_flags,z_ref_m,ident_att_active,ident_att_axis,ident_att_mode,ident_att_reserved,ident_att_seq,ident_att_signal_rad,ident_att_signal_m_s2,ident_att_elapsed_ms,record_crc32,sector_seq,sector_index
827477062,5,428,2805,1460,49455970,49456,46176,272,-810,13775,869,233,57,-248,27.125,-0.08510777354240417,-0.06578758358955383,1.038883090019226,7.510434150695801,-7.969440460205078,-3.5376498699188232,-0.5536019206047058,-0.7807999849319458,6.163148880004883,1585,1500,1859,1500,2000,1503,1000,1000,1822,1529,1467,1833,1784,1504,1494,110,199,1974,1975,3,90.36,0.36,89.46,-0.54,1,1,1,1,1,1,1,0,1,1,0,0,stabilized_mix,-0.05367641523480415,0.16428065299987793,0.37467652559280396,-0.011611350812017918,0.05831252783536911,0.014211311005055904,0.0,0.13600000739097595,0.011611350812017918,0.07768747955560684,0.0,0.0,0.0,0.0,0.0,0.0,0.0,0.0,0.0,0.0,0.0,0.12858350574970245,0.0,0.0,-0.0,0.0,0.0,0.12858350574970245,0.18034790456295013,0.1278601884841919,13.232649803161621,0.013628165237605572,-0.009661279618740082,0.012661323882639408,-0.011065026745200157,0.038264401257038116,-0.03516048938035965,0.05131521075963974,-0.0458432212471962,-0.20764786005020142,0.030871817842125893,-6.187160033732653e-05,13.234496116638184,6.926605701446533,6.307889938354492,1833.0,1784.0,0.0,0.0,0.027358289808034897,-0.029004128649830818,0.0029497158247977495,-0.015420390293002129,0.01726318523287773,0.1040952280163765,0.13108180463314056,-0.13909298181533813,-0.061743635684251785,0.05109478533267975,-0.05594838038086891,-6.187160761328414e-05,1.0,0.16598711907863617,0.8459271788597107,0,0.30000001192092896,0,0,0,0,0,0.0,0.0,0,89378666,3810,755
827477062,5,428,2806,1460,49459990,49460,46180,268,5013,6044,1513,241,-535,-239,27.09375,0.06794043630361557,-0.011527620255947113,0.9052866101264954,9.365996360778809,-8.903388977050781,-3.8552777767181396,-0.34275662899017334,-0.5721020698547363,6.167524337768555,1585,1500,1859,1500,2000,1503,1000,1000,1822,1541,1459,1833,1784,1504,1494,114,203,1974,1975,3,90.36,0.36,89.46,-0.54,1,1,1,1,1,1,1,0,1,1,0,0,stabilized_mix,0.058264076709747314,0.05234234407544136,0.3821013867855072,-0.01158330962061882,0.058543361723423004,0.015600274316966534,0.0,0.13600000739097595,0.01158330962061882,0.07745664566755295,0.0,0.0,0.0,0.0,0.0,0.0,0.0,0.0,0.0,0.0,0.0,0.12858350574970245,0.0,0.0,-0.0,0.0,0.0,0.12858350574970245,0.13214510679244995,0.07916740328073502,13.233599662780762,0.009985243901610374,-0.005981933791190386,0.02086811326444149,-0.02169742062687874,0.04279682785272598,-0.04385144263505936,0.06420782208442688,-0.06510663032531738,-0.20780059695243835,0.03364364430308342,-6.095494609326124e-05,13.234496116638184,6.922022819519043,6.312473297119141,1833.0,1784.0,0.0,0.0,0.03874511644244194,-0.03614243492484093,0.002342567779123783,-0.030238240957260132,0.028421729803085327,0.10444815456867218,0.16346746683120728,-0.15539345145225525,-0.06728728860616684,0.07253777235746384,-0.06991253793239594,-6.0954931541346014e-05,1.0,0.2105380892753601,0.8459271788597107,0,0.30000001192092896,0,0,0,0,0,0.0,0.0,0,3788983267,3810,755
827477062,5,428,2807,1460,49464011,49464,46184,284,-3612,5353,-2818,314,378,-419,27.21875,0.011602364480495453,0.0640835389494896,0.9851076602935791,10.388189315795898,-9.150948524475098,4.430877685546875,-0.46633970737457275,-0.7978991270065308,6.162075042724609,1585,1500,1859,1500,2000,1503,1000,1000,1822,1546,1462,1844,1774,1504,1494,118,207,1974,1975,3,90.36,0.36,89.46,-0.54,1,1,1,1,1,1,1,0,1,1,0,0,stabilized_mix,-0.051497966051101685,0.10643860697746277,0.32626768946647644,-0.011699261143803596,0.05792301148176193,0.01706567592918873,0.0,0.13600000739097595,0.011699261143803596,0.07807699590921402,0.0,0.0,0.0,0.0,0.0,0.0,0.0,0.0,0.0,0.0,0.0,0.12266217917203903,0.0,0.0,-0.0,0.0,0.0,0.12266217917203903,0.18440993130207062,0.10777197033166885,13.240867614746094,0.01392642967402935,-0.008138374425470829,0.01617988757789135,-0.02303965389728546,0.04398326575756073,-0.04861157387495041,0.05953158438205719,-0.07225402444601059,-0.2076103836297989,-0.038666702806949615,-8.619693107903004e-05,13.24259090423584,7.052280426025391,6.190310955047607,1844.0,1774.0,0.0,0.0,0.04285183176398277,-0.033351410180330276,0.002313527511432767,-0.03212519735097885,0.022038254886865616,0.10446513444185257,0.1813081055879593,-0.15971417725086212,0.07733340561389923,0.0805368646979332,-0.06483468413352966,-8.619698201073334e-05,1.0,0.2336122691631317,0.8464445471763611,0,0.30000001192092896,0,0,0,0,0,0.0,0.0,0,834650189,3810,755
827477062,5,428,2808,1460,49468041,49468,46188,288,341,12249,2482,225,-39,-196,27.25,-0.08517971634864807,-0.0814308151602745,0.9990918636322021,7.621174335479736,-8.230915069580078,-3.664853096008301,-0.5374093055725098,-0.7137157917022705,6.155521392822266,1585,1500,1859,1500,2000,1503,1000,1000,1822,1530,1465,1834,1784,1504,1494,122,211,1974,1975,3,90.36,0.36,89.46,-0.54,1,1,1,1,1,1,1,0,1,1,0,0,stabilized_mix,-0.013274561613798141,0.14295385777950287,0.38879629969596863,-0.011511133052408695,0.0581248439848423,0.018589138984680176,0.0,0.13600000739097595,0.011511133052408695,0.07787516713142395,0.0,0.0,0.0,0.0,0.0,0.0,0.0,0.0,0.0,0.0,0.0,0.12266217917203903,0.0,0.0,-0.0,0.0,0.0,0.12266217917203903,0.16495458781719208,0.12419823557138443,13.240981101989746,0.012457238510251045,-0.009378833696246147,0.015060563571751118,-0.01174093596637249,0.03949877619743347,-0.03565663844347,0.05497279763221741,-0.04699130356311798,-0.20738162100315094,0.031981877982616425,-6.138987373560667e-05,13.24259090423584,6.9282450675964355,6.3143463134765625,1834.0,1784.0,0.0,0.0,0.02807941846549511,-0.03110475279390812,0.002869813935831189,-0.016373394057154655,0.0205463245511055,0.10397455096244812,0.13301458954811096,-0.14365656673908234,-0.06396375596523285,0.05240466818213463,-0.05996496230363846,-6.138991011539474e-05,1.0,0.17780423164367676,0.8464445471763611,0,0.30000001192092896,0,0,0,0,0,0.0,0.0,0,3902384987,3810,755
827477062,5,428,2809,1460,49471061,49472,46191,278,-2352,6017,-4289,360,91,-355,27.171875,0.08148149400949478,0.07823219895362854,0.9424039721488953,10.532875061035156,-9.942519187927246,3.770113706588745,-0.4062344431877136,-0.6989941596984863,6.163862228393555,1585,1500,1859,1500,2000,1503,1000,1000,1822,1547,1456,1843,1775,1504,1494,126,215,1974,1975,3,90.36,0.36,89.46,-0.54,1,1,1,1,1,1,1,0,1,1,0,0,stabilized_mix,0.0004637613892555237,0.07019692659378052,0.3396580219268799,-0.011559456586837769,0.058363255113363266,0.019586846232414246,0.0,0.13600000739097595,0.011559456586837769,0.07763674855232239,0.0,0.0,0.0,0.0,0.0,0.0,0.0,0.0,0.0,0.0,0.0,0.12266217917203903,0.0,0.0,-0.0,0.0,0.0,0.12266217917203903,0.1615522801876068,0.09388389438390732,13.241272926330566,0.01220005564391613,-0.007089600432664156,0.021201275289058685,-0.024695873260498047,0.04779903590679169,-0.04928988218307495,0.06847179681062698,-0.07455020397901535,-0.20767277479171753,-0.03290044888854027,-8.420064114034176e-05,13.24259090423584,7.042298793792725,6.200292587280273,1843.0,1775.0,0.0,0.0,0.04431087151169777,-0.0384567454457283,0.0020385594107210636,-0.03443630784749985,0.02887403964996338,0.1045793741941452,0.18383334577083588,-0.1735296994447708,0.06580089777708054,0.08309356123209,-0.0745454654097557,-8.420062658842653e-05,1.0,0.24102844297885895,0.8464445471763611,0,0.30000001192092896,0,0,0,0,0,0.0,0.0,0,3586064084,3810,755
827477062,5,428,2810,1460,49475128,49476,46195,286,-983,11818,-140,277,191,-341,27.234375,-0.049893420189619064,-0.034560173749923706,1.0470236539840698,8.730509757995605,-8.450637817382812,-1.0435807704925537,-0.4929419159889221,-0.6657007932662964,6.152471542358398,1585,1500,1859,1500,2000,1503,1000,1000,1822,1536,1463,1837,1781,1504,1494,130,219,1974,1975,3,90.36,0.36,89.46,-0.54,1,1,1,1,1,1,1,0,1,1,0,0,stabilized_mix,-0.027537856251001358,0.14164675772190094,0.3401736617088318,-0.011883734725415707,0.05845886841416359,0.021083315834403038,0.0,0.13600000739097595,0.011883734725415707,0.07754114270210266,0.0,0.0,0.0,0.0,0.0,0.0,0.0,0.0,0.0,0.0,0.0,0.11615331470966339,0.0,0.0,-0.0,0.0,0.0,0.11615331470966339,0.15396122634410858,0.11399954557418823,13.250103950500488,0.011619101278483868,-0.008602879010140896,0.016860591247677803,-0.01659214496612549,0.04054859280586243,-0.040821827948093414,0.05755658447742462,-0.05731210857629776,-0.2072751522064209,0.009106960147619247,-6.935885176062584e-05,13.25148868560791,6.972538948059082,6.278950214385986,1837.0,1781.0,0.0,0.0,0.0341358408331871,-0.03245231881737709,0.0026352829299867153,-0.023154009133577347,0.023002227768301964,0.10404838621616364,0.15237614512443542,-0.147491455078125,-0.018213920295238495,0.06394761055707932,-0.06278979033231735,-6.935886631254107e-05,1.0,0.18615545332431793,0.8470132946968079,0,0.30000001192092896,0,0,0,0,0,0.0,0.0,0,87241028,3810,755
827477062,5,428,2811,1460,49479158,49480,46199,284,4817,6088,3121,254,-438,-232,27.21875,0.013401791453361511,-0.04949446767568588,0.9015694856643677,9.318973541259766,-9.453496932983398,-4.4235148429870605,-0.39551055431365967,-0.5875940322875977,6.154598236083984,1585,1500,1859,1500,2000,1503,1000,1000,1822,1540,1456,1833,1785,1504,1494,134,223,1974,1975,3,90.36,0.36,89.46,-0.54,1,1,1,1,1,1,1,0,1,1,0,0,stabilized_mix,0.03218535706400871,0.08045892417430878,0.38219892978668213,-0.011847550049424171,0.05869138985872269,0.022425657138228416,0.0,0.13600000739097595,0.011847550049424171,0.07730861753225327,0.0,0.0,0.0,0.0,0.0,0.0,0.0,0.0,0.0,0.0,0.0,0.11615331470966339,0.0,0.0,-0.0,0.0,0.0,0.11615331470966339,0.13589760661125183,0.09146898239850998,13.250475883483887,0.010255695320665836,-0.006902599241584539,0.022462017834186554,-0.020170629024505615,0.04538062959909439,-0.04357580840587616,0.06845981627702713,-0.06319395452737808,-0.20734938979148865,0.038602448999881744,-5.906145088374615e-05,13.25148868560791,6.921051502227783,6.330437183380127,1833.0,1785.0,0.0,0.0,0.03770773112773895,-0.03864200413227081,0.0022858763113617897,-0.028144752606749535,0.03063388541340828,0.10422896593809128,0.16264677047729492,-0.16499464213848114,-0.07720489799976349,0.07050199061632156,-0.07464151829481125,-5.9061429055873305e-05,1.0,0.22137130796909332,0.8470132946968079,0,0.30000001192092896,0,0,0,0,0,0.0,0.0,0,3311081381,3810,755
827477062,5,428,2812,1460,49483189,49484,46203,278,-3352,4760,-2354,372,198,-380,27.171875,0.00984463095664978,0.06966909766197205,0.9442194104194641,10.731104850769043,-9.860751152038574,3.439526319503784,-0.47329509258270264,-0.7842233777046204,6.151205062866211,1585,1500,1859,1500,2000,1503,1000,1000,1822,1547,1458,1844,1776,1504,1494,138,227,1974,1975,3,90.36,0.36,89.46,-0.54,1,1,1,1,1,1,1,0,1,1,0,0,stabilized_mix,-0.04546117037534714,0.08113442361354828,0.3223421573638916,-0.012154367752373219,0.057787712663412094,0.023800477385520935,0.0,0.13600000739097595,0.012154367752373219,0.07821229100227356,0.0,0.0,0.0,0.0,0.0,0.0,0.0,0.0,0.0,0.0,0.0,0.10793258249759674,0.0,0.0,-0.0,0.0,0.0,0.10793258249759674,0.18152497708797455,0.10954599827528,13.261031150817871,0.013687746599316597,-0.008259782567620277,0.0190608948469162,-0.023770689964294434,0.04733165353536606,-0.05014076083898544,0.06589999049901962,-0.07442557066679001,-0.20723095536231995,-0.030015530064702034,-8.303625509142876e-05,13.262725830078125,7.046544075012207,6.21618127822876,1844.0,1776.0,0.0,0.0,0.044229283928871155,-0.03700581192970276,0.002105872379615903,-0.03319584205746651,0.02599618211388588,0.10435708612203598,0.18729311227798462,-0.17210257053375244,0.06003106012940407,0.08308060467243195,-0.0718582421541214,-8.303626964334399e-05,1.0,0.24062500894069672,0.8477315306663513,0,0.30000001192092896,0,0,0,0,0,0.0,0.0,0,504229682,3810,755
827477062,5,428,2822,1469,49523473,49524,46243,320,3403,7781,5503,216,-333,-225,27.5,-0.060115229338407516,-0.08105597645044327,0.9295573830604553,9.54104232788086,-8.868605613708496,-7.47053861618042,-0.5800324082374573,-0.9077610969543457,6.040470123291016,1586,1500,1858,1500,2000,1503,1000,1000,1821,1538,1464,1831,1792,1504,1494,178,267,1974,1975,1,90.36,0.36,,,1,1,1,1,1,1,1,0,1,1,0,0,stabilized_mix,-0.028566688299179077,0.09932278096675873,0.3370774984359741,-0.013646358624100685,0.05690125375986099,0.036161281168460846,0.0,0.13760000467300415,0.013646358624100685,0.08069875091314316,0.0,0.0,0.0,0.0,0.0,0.0,0.0,0.0,0.0,0.0,0.0,0.0725366622209549,0.0,0.0,-0.0,0.0,0.0,0.0725366622209549,0.2108847200870514,0.13473550975322723,13.308759689331055,0.015844231471419334,-0.010122205130755901,0.013584108091890812,-0.016465110704302788,0.04237019270658493,-0.0444146990776062,0.056976549327373505,-0.059989385306835175,-0.20336556434631348,0.06519274413585663,-4.836043808609247e-05,13.311113357543945,6.8973588943481445,6.413754463195801,1831.0,1792.0,0.0,0.0,0.03573743253946304,-0.03215349093079567,0.0025939317420125008,-0.023079432547092438,0.018613634631037712,0.10221134126186371,0.16652260720729828,-0.1547863632440567,-0.13038548827171326,0.06723159551620483,-0.06242654100060463,-4.8360485379816964e-05,1.0,0.19401392340660095,0.8508244156837463,0,0.30000001192092896,0,0,0,0,0,0.0,0.0,0,2947911057,3811,756
827477062,5,428,2823,1469,49527506,49528,46247,276,-2881,7278,-3647,370,-69,-363,27.15625,0.052259624004364014,0.08787938952445984,0.9492670893669128,11.645101547241211,-10.482621192932129,0.07249653339385986,-0.49154508113861084,-0.9683772325515747,6.033847808837891,1586,1500,1858,1500,2000,1503,1000,1000,1821,1551,1457,1841,1783,1504,1494,182,271,1974,1975,1,90.36,0.36,,,1,1,1,1,1,1,1,0,1,1,0,0,stabilized_mix,-0.041913315653800964,0.03840671107172966,0.28456008434295654,-0.013813070952892303,0.0571359284222126,0.03727690875530243,0.0,0.13760000467300415,0.013813070952892303,0.08046407997608185,0.0,0.0,0.0,0.0,0.0,0.0,0.0,0.0,0.0,0.0,0.0,0.0725366622209549,0.0,0.0,-0.0,0.0,0.0,0.0725366622209549,0.22496534883975983,0.11417938768863678,13.308722496032715,0.01690199226140976,-0.008577853441238403,0.01749335788190365,-0.025692958384752274,0.05015753209590912,-0.054217785596847534,0.0676688626408577,-0.0799766555428505,-0.20313440263271332,-0.0006326516158878803,-7.131847087293863e-05,13.311113357543945,7.012148857116699,6.298964500427246,1841.0,1783.0,0.0,0.0,0.04753858968615532,-0.03801291808485985,0.0019353001844137907,-0.03601061552762985,0.023935262113809586,0.10249866545200348,0.2032453566789627,-0.1829562485218048,0.0012653032317757607,0.08959057927131653,-0.07402206212282181,-7.131847087293863e-05,1.0,0.2585364580154419,0.8508244156837463,0,0.30000001192092896,0,0,0,0,0,0.0,0.0,0,3014120080,3811,756
827477062,5,428,2824,1469,49531628,49532,46251,280,-1837,10618,-156,314,173,-426,27.1875,-0.02421189844608307,-0.016260575503110886,1.0437350273132324,10.624713897705078,-8.886408805847168,-1.5515754222869873,-0.6024289727210999,-0.9968872666358948,6.015554428100586,1586,1500,1858,1500,2000,1503,1000,1000,1821,1544,1466,1839,1785,1504,1494,186,275,1974,1975,1,90.36,0.36,,,1,1,1,1,1,1,1,0,1,1,0,0,stabilized_mix,-0.06896364688873291,0.11251888424158096,0.2737811505794525,-0.013890553265810013,0.05631548911333084,0.038502804934978485,0.0,0.13760000467300415,0.013890553265810013,0.08128451555967331,0.0,0.0,0.0,0.0,0.0,0.0,0.0,0.0,0.0,0.0,0.0,0.06628170609474182,0.0,0.0,-0.0,0.0,0.0,0.06628170609474182,0.2317366749048233,0.1400240808725357,13.316912651062012,0.017399925738573074,-0.010512775741517544,0.011335869319736958,-0.020041201263666153,0.04245408624410629,-0.049431294202804565,0.054035626351833344,-0.06931789964437485,-0.20249584317207336,0.013540050014853477,-6.613449659198523e-05,13.319664001464844,6.990504741668701,6.329159736633301,1839.0,1785.0,0.0,0.0,0.04114995896816254,-0.030331533402204514,0.002494651824235916,-0.02810870110988617,0.015534413047134876,0.1019086092710495,0.18543623387813568,-0.155097097158432,-0.027080100029706955,0.07771966606378555,-0.05921100452542305,-6.613452569581568e-05,1.0,0.22413596510887146,0.8513709306716919,0,0.30000001192092896,0,0,0,0,0,0.0,0.0,0,4180473967,3811,756
827477062,5,428,2825,1469,49535571,49536,46255,280,4942,6652,4167,266,-457,-264,27.1875,-0.014713965356349945,-0.07857304811477661,0.9041569232940674,10.340534210205078,-9.447813034057617,-6.737242698669434,-0.5443465709686279,-0.9518651366233826,6.008716583251953,1586,1500,1858,1500,2000,1503,1000,1000,1821,1543,1461,1832,1791,1504,1494,190,279,1974,1975,1,90.36,0.36,,,1,1,1,1,1,1,1,0,1,1,0,0,stabilized_mix,-0.038793355226516724,0.07827802002429962,0.3502587080001831,-0.014059421606361866,0.05641233175992966,0.039668187499046326,0.0,0.13760000467300415,0.014059421606361866,0.0811876729130745,0.0,0.0,0.0,0.0,0.0,0.0,0.0,0.0,0.0,0.0,0.0,0.06628170609474182,0.0,0.0,-0.0,0.0,0.0,0.06628170609474182,0.2212717980146408,0.12652596831321716,13.317225456237793,0.016613928601145744,-0.009499328210949898,0.014698638580739498,-0.019753580912947655,0.04513136297464371,-0.048108235001564026,0.060833074152469635,-0.06701692193746567,-0.2022571563720703,0.058793533593416214,-5.0212256610393524e-05,13.319664001464844,6.910893440246582,6.408770561218262,1832.0,1791.0,0.0,0.0,0.03989613428711891,-0.034287113696336746,0.002374925184994936,-0.027706239372491837,0.020145243033766747,0.101804219186306,0.1804763674736023,-0.1648954451084137,-0.11758706718683243,0.07514534145593643,-0.06665971130132675,-5.0212267524329945e-05,1.0,0.2167118638753891,0.8513709306716919,0,0.30000001192092896,0,0,0,0,0,0.0,0.0,0,2613786927,3811,756
827477062,5,428,2826,1469,49539602,49540,46259,282,-2596,5460,-2014,400,88,-401,27.203125,0.02091856114566326,0.06285744160413742,0.9324880838394165,12.052924156188965,-10.306164741516113,1.7051167488098145,-0.5359010100364685,-1.09694504737854,6.003427505493164,1586,1500,1858,1500,2000,1503,1000,1000,1821,1553,1460,1843,1781,1504,1494,194,283,1974,1975,1,90.36,0.36,,,1,1,1,1,1,1,1,0,1,1,0,0,stabilized_mix,-0.09326093643903732,0.05793522298336029,0.29697680473327637,-0.014372125267982483,0.056648604571819305,0.04084606468677521,0.0,0.13760000467300415,0.014372125267982483,0.08095140010118484,0.0,0.0,0.0,0.0,0.0,0.0,0.0,0.0,0.0,0.0,0.0,0.06628170609474182,0.0,0.0,-0.0,0.0,0.0,0.06628170609474182,0.25499340891838074,0.12455733120441437,13.31663990020752,0.019146140664815903,-0.009351523593068123,0.013922062702476978,-0.02620108798146248,0.049292273819446564,-0.056082531809806824,0.06294707953929901,-0.08258681744337082,-0.20207254588603973,-0.014879950322210789,-7.593340706080198e-05,13.319664001464844,7.039499282836914,6.280165195465088,1843.0,1781.0,0.0,0.0,0.049006387591362,-0.03526673465967178,0.0020139857660979033,-0.036747243255376816,0.0190599262714386,0.10201354324817657,0.2103632092475891,-0.17987650632858276,0.029759900644421577,0.09256752580404282,-0.06889380514621735,-7.593337068101391e-05,1.0,0.26695576310157776,0.8513709306716919,0,0.30000001192092896,0,0,0,0,0,0.0,0.0,0,2570988119,3811,756
827477062,5,428,2827,1469,49543636,49544,46263,294,-1645,12398,-602,249,166,-383,27.296875,-0.031801678240299225,-0.025271475315093994,1.0471553802490234,10.452733993530273,-8.224949836730957,-1.7963719367980957,-0.620324969291687,-1.0979503393173218,5.989147186279297,1586,1500,1858,1500,2000,1503,1000,1000,1821,1543,1471,1839,1786,1504,1494,198,287,1974,1975,1,90.36,0.36,,,1,1,1,1,1,1,1,0,1,1,0,0,stabilized_mix,-0.09798363596200943,0.11401745676994324,0.30050402879714966,-0.014543448574841022,0.05584126338362694,0.04211956262588501,0.0,0.13760000467300415,0.014543448574841022,0.08175873756408691,0.0,0.0,0.0,0.0,0.0,0.0,0.0,0.0,0.0,0.0,0.0,0.06088607758283615,0.0,0.0,-0.0,0.0,0.0,0.06088607758283615,0.2553683817386627,0.14425872266292572,13.323811531066895,0.01916396990418434,-0.010824725031852722,0.006798645481467247,-0.019118420779705048,0.039266280829906464,-0.04860438406467438,0.04633697122335434,-0.06754902005195618,-0.20157405734062195,0.015676302835345268,-6.506417412310839e-05,13.327038764953613,6.988840579986572,6.338198661804199,1839.0,1786.0,0.0,0.0,0.040025148540735245,-0.02592385746538639,0.002705262042582035,-0.02682797983288765,0.009324008598923683,0.10140940546989441,0.18243461847305298,-0.14355245232582092,-0.031352605670690536,0.07578236609697342,-0.05081465467810631,-6.506421050289646e-05,1.0,0.21842804551124573,0.8518423438072205,0,0.30000001192092896,0,0,0,0,0,0.0,0.0,0,2433033516,3811,756
827477062,5,428,2828,1469,49547670,49548,46267,284,4878,5610,1737,269,-479,-301,27.21875,0.029175326228141785,-0.045755889266729355,0.8979663252830505,10.983174324035645,-9.854969024658203,-5.138891220092773,-0.5219339728355408,-1.0511184930801392,5.987569808959961,1586,1500,1858,1500,2000,1503,1000,1000,1821,1546,1461,1834,1790,1504,1494,202,291,1974,1975,1,90.36,0.36,,,1,1,1,1,1,1,1,0,1,1,0,0,stabilized_mix,-0.057007551193237305,0.056625060737133026,0.35384050011634827,-0.014856102876365185,0.055955272167921066,0.043333541601896286,0.0,0.13760000467300415,0.014856102876365185,0.08164472877979279,0.0,0.0,0.0,0.0,0.0,0.0,0.0,0.0,0.0,0.0,0.0,0.06088607758283615,0.0,0.0,-0.0,0.0,0.0,0.06088607758283615,0.24447721242904663,0.12138010561466217,13.324243545532227,0.018346240743994713,-0.009107934311032295,0.013878920115530491,-0.022339776158332825,0.047070398926734924,-0.05107313394546509,0.06176543980836868,-0.07275497168302536,-0.20151899755001068,0.04484528675675392,-5.483580753207207e-05,13.327038764953613,6.9376983642578125,6.389340400695801,1834.0,1790.0,0.0,0.0,0.043263986706733704,-0.034749265760183334,0.0022392794489860535,-0.03134821727871895,0.019024206325411797,0.10157015919685364,0.1916925460100174,-0.1720016598701477,-0.08969057351350784,0.08161327242851257,-0.06769069284200668,-5.4835796618135646e-05,1.0,0.23523451387882233,0.8518423438072205,0,0.30000001192092896,0,0,0,0,0,0.0,0.0,0,277817678,3811,756
827477062,5,428,2829,1469,49551792,49552,46271,280,-1497,4510,-1382,408,187,-425,27.1875,-0.006825879216194153,0.03529198840260506,0.9390873312950134,12.321354866027832,-10.006591796875,3.1337571144104004,-0.5580946803092957,-1.2264339923858643,5.986425399780273,1586,1500,1858,1500,2000,1503,1000,1000,1821,1554,1464,1845,1780,1504,1494,206,295,1974,1975,1,90.36,0.36,,,1,1,1,1,1,1,1,0,1,1,0,0,stabilized_mix,-0.1306043267250061,0.06880573183298111,0.30448848009109497,-0.015400679782032967,0.05522405728697777,0.04459831491112709,0.0,0.13760000467300415,0.015400679782032967,0.08237594366073608,0.0,0.0,0.0,0.0,0.0,0.0,0.0,0.0,0.0,0.0,0.0,0.05604876950383186,0.0,0.0,-0.0,0.0,0.0,0.05604876950383186,0.2853891849517822,0.12984582781791687,13.329965591430664,0.021406326442956924,-0.009738356806337833,0.009878587909042835,-0.026678061112761497,0.047815822064876556,-0.05727376043796539,0.057163506746292114,-0.0844491645693779,-0.20147904753684998,-0.02734719030559063,-8.00892012193799e-05,13.33365249633789,7.067272186279297,6.266380310058594,1845.0,1780.0,0.0,0.0,0.05003444105386734,-0.03192312642931938,0.002144988626241684,-0.03745495527982712,0.013534755446016788,0.1017446368932724,0.21504820883274078,-0.1746479719877243,0.05469438061118126,0.09474720060825348,-0.06262645870447159,-8.008917939150706e-05,1.0,0.272955060005188,0.8522650599479675,0,0.30000001192092896,0,0,0,0,0,0.0,0.0,0,1628919206,3811,756
827477062,5,428,2840,1479,49596045,49596,46315,302,-1115,7242,-2804,396,-125,-365,27.359375,0.02372574433684349,0.02896568365395069,0.937363862991333,12.476118087768555,-10.894523620605469,-0.8855828642845154,-0.6167864799499512,-1.4355577230453491,5.944498062133789,1585,1500,1858,1500,2000,1503,1000,1000,1821,1553,1461,1841,1787,1504,1494,250,339,1974,1975,1,90.36,0.36,,,1,1,1,1,1,1,1,0,1,1,0,0,stabilized_mix,-0.11437677592039108,0.044671088457107544,0.2950787842273712,-0.019345702603459358,0.05429965630173683,0.05831987038254738,0.0,0.13600000739097595,0.019345702603459358,0.08170035481452942,0.0,0.0,0.0,0.0,0.0,0.0,0.0,0.0,0.0,0.0,0.0,0.0322173647582531,0.0,0.0,-0.0,0.0,0.0,0.0322173647582531,0.33485865592956543,0.14383892714977264,13.361260414123535,0.025056660175323486,-0.01076157670468092,0.008814389817416668,-0.025112923234701157,0.0519288033246994,-0.0578513965010643,0.06091216951608658,-0.08289121836423874,-0.20001551508903503,0.007728168275207281,-6.73005124554038e-05,13.366230010986328,7.019617557525635,6.346612453460693,1841.0,1787.0,0.0,0.0,0.04922033101320267,-0.034150782972574234,0.0020613628439605236,-0.035343270748853683,0.012108850292861462,0.10113555938005447,0.21774934232234955,-0.19014529883861542,-0.015456336550414562,0.09323281794786453,-0.06690113991498947,-6.73005633871071e-05,1.0,0.26793766021728516,0.8543473482131958,0,0.30000001192092896,0,0,0,0,0,0.0,0.0,0,4073496275,3812,757
827477062,5,428,2841,1479,49599096,49600,46318,282,79,10878,1565,201,147,-397,27.203125,-0.03849676251411438,-0.04551182687282562,1.0054632425308228,12.181707382202148,-7.913875579833984,-1.601309061050415,-0.7076707482337952,-1.420781135559082,5.933877944946289,1585,1500,1858,1500,2000,1503,1000,1000,1821,1550,1477,1840,1787,1504,1494,254,343,1974,1975,0,,,,,1,1,1,1,1,1,1,0,1,1,0,0,stabilized_mix,-0.10088096559047699,0.08827059715986252,0.296176552772522,-0.01953991688787937,0.05437847599387169,0.059213656932115555,0.0,0.13600000739097595,0.01953991688787937,0.08162152767181396,0.0,0.0,0.0,0.0,0.0,0.0,0.0,0.0,0.0,0.0,0.0,0.0322173647582531,0.0,0.0,-0.0,0.0,0.0,0.0322173647582531,0.33141258358955383,0.16503381729125977,13.361101150512695,0.024799201637506485,-0.012347386218607426,-0.0010629997123032808,-0.022711288183927536,0.03770114481449127,-0.05648519843816757,0.03691258281469345,-0.07907304912805557,-0.1996448040008545,0.013974057510495186,-6.498477887362242e-05,13.366230010986328,7.0080389976501465,6.358191013336182,1840.0,1787.0,0.0,0.0,0.04667980968952179,-0.02035456895828247,0.0027925337199121714,-0.03196494281291962,-0.0014611966907978058,0.10065092146396637,0.2126109004020691,-0.13812318444252014,-0.02794811502099037,0.08894708752632141,-0.040568962693214417,-6.498475704574957e-05,1.0,0.2556211054325104,0.8543473482131958,0,0.30000001192092896,0,0,0,0,0,0.0,0.0,0,1492335308,3812,757
827477062,5,428,2842,1479,49603133,49604,46322,288,1149,8066,-3057,311,-336,-364,27.25,0.0602823942899704,0.00460389070212841,0.939874529838562,12.206181526184082,-10.542648315429688,-4.0315752029418945,-0.6304910778999329,-1.450425386428833,5.930580139160156,1585,1500,1858,1500,2000,1503,1000,1000,1821,1551,1463,1838,1791,1504,1494,258,347,1974,1975,0,,,,,1,1,1,1,1,1,1,0,1,1,0,0,stabilized_mix,-0.09522134065628052,0.04200981929898262,0.29928773641586304,-0.01972188800573349,0.05398666858673096,0.060252852737903595,0.0,0.13600000739097595,0.01972188800573349,0.082013338804245,0.0,0.0,0.0,0.0,0.0,0.0,0.0,0.0,0.0,0.0,0.0,0.02544417977333069,0.0,0.0,-0.0,0.0,0.0,0.02544417977333069,0.3385602831840515,0.14713570475578308,13.370392799377441,0.025316230952739716,-0.011000621132552624,0.0075752222910523415,-0.023617291823029518,0.050200678408145905,-0.05655950307846069,0.058479368686676025,-0.07964589446783066,-0.19952969253063202,0.035182129591703415,-5.752162542194128e-05,13.37548828125,6.9753522872924805,6.4001359939575195,1838.0,1791.0,0.0,0.0,0.04730440303683281,-0.032808415591716766,0.0021904443856328726,-0.03326158970594406,0.01041693426668644,0.10082627832889557,0.21303805708885193,-0.18400391936302185,-0.07036425918340683,0.08965187519788742,-0.06429398059844971,-5.7521643611835316e-05,1.0,0.25746822357177734,0.8549391627311707,0,0.30000001192092896,0,0,0,0,0,0.0,0.0,0,1172080183,3812,757
827477062,5,428,2843,1479,49607167,49608,46326,308,-606,5427,1010,393,-10,-456,27.40625,-0.050180524587631226,0.0009745005518198013,0.9768555760383606,13.212621688842773,-9.67198371887207,-0.1841423362493515,-0.7263927459716797,-1.5200543403625488,5.919277191162109,1585,1500,1858,1500,2000,1503,1000,1000,1821,1555,1469,1842,1786,1504,1494,262,351,1974,1975,0,,,,,1,1,1,1,1,1,1,0,1,1,0,0,stabilized_mix,-0.14435139298439026,0.07740124315023422,0.24521321058273315,-0.020060323178768158,0.05413306504487991,0.06130609288811684,0.0,0.13600000739097595,0.020060323178768158,0.08186694234609604,0.0,0.0,0.0,0.0,0.0,0.0,0.0,0.0,0.0,0.0,0.0,0.02544417977333069,0.0,0.0,-0.0,0.0,0.0,0.02544417977333069,0.354809433221817,0.16950948536396027,13.369707107543945,0.026532083749771118,-0.012673482298851013,0.002831870224326849,-0.025422116741538048,0.04608050733804703,-0.06122855097055435,0.04894952476024628,-0.08669501543045044,-0.19913513958454132,0.0016069450648501515,-6.913486868143082e-05,13.37548828125,7.033418655395508,6.34207010269165,1842.0,1786.0,0.0,0.0,0.05129585787653923,-0.027203110978007317,0.002346846740692854,-0.03580433130264282,0.0038928063586354256,0.1006670594215393,0.23060375452041626,-0.1688079535961151,-0.003213890129700303,0.09756650775671005,-0.05379417538642883,-6.913486868143082e-05,1.0,0.28019797801971436,0.8549391627311707,0,0.30000001192092896,0,0,0,0,0,0.0,0.0,0,3542697305,3812,757
827477062,5,428,2844,1479,49611198,49612,46330,300,386,9725,3276,182,29,-408,27.34375,-0.037199366837739944,-0.0516020841896534,0.9905796051025391,12.479771614074707,-8.084450721740723,-3.6972081661224365,-0.7316752076148987,-1.4931707382202148,5.905069351196289,1585,1500,1858,1500,2000,1503,1000,1000,1821,1551,1476,1838,1790,1504,1494,266,355,1974,1975,0,,,,,1,1,1,1,1,1,1,0,1,1,0,0,stabilized_mix,-0.10260002315044403,0.08439955115318298,0.2767579257488251,-0.02042541652917862,0.05420142412185669,0.06236417219042778,0.0,0.13600000739097595,0.02042541652917862,0.08179858326911926,0.0,0.0,0.0,0.0,0.0,0.0,0.0,0.0,0.0,0.0,0.0,0.02544417977333069,0.0,0.0,-0.0,0.0,0.0,0.02544417977333069,0.3485357165336609,0.17074422538280487,13.369855880737305,0.026062868535518646,-0.012765803374350071,-0.0017508938908576965,-0.022903036326169968,0.038492098450660706,-0.057829827070236206,0.03738715499639511,-0.08037453144788742,-0.19863919913768768,0.03226422891020775,-5.8231293223798275e-05,13.37548828125,6.978900909423828,6.39658784866333,1838.0,1790.0,0.0,0.0,0.047456804662942886,-0.020621970295906067,0.0027639875188469887,-0.03225670009851456,-0.002408308908343315,0.1002081111073494,0.21781310439109802,-0.14110028743743896,-0.0645284578204155,0.09047030657529831,-0.04111533239483833,-5.823123501613736e-05,1.0,0.2598186433315277,0.8549391627311707,0,0.30000001192092896,0,0,0,0,0,0.0,0.0,0,921442332,3812,757
827477062,5,428,2845,1479,49615202,49616,46334,280,-594,8114,-3286,353,-234,-363,27.1875,0.046388812363147736,0.02398492395877838,0.9451794624328613,12.504884719848633,-10.703207015991211,-3.079315423965454,-0.6629096865653992,-1.5850067138671875,5.900213241577148,1585,1500,1858,1500,2000,1503,1000,1000,1821,1552,1464,1839,1790,1504,1494,270,359,1974,1975,0,,,,,1,1,1,1,1,1,1,0,1,1,0,0,stabilized_mix,-0.12010812759399414,0.038972314447164536,0.2652968764305115,-0.021248089149594307,0.054423801600933075,0.06328247487545013,0.0,0.13600000739097595,0.021248089149594307,0.08157620579004288,0.0,0.0,0.0,0.0,0.0,0.0,0.0,0.0,0.0,0.0,0.0,0.01971152424812317,0.0,0.0,-0.0,0.0,0.0,0.01971152424812317,0.370183527469635,0.1547817885875702,13.377307891845703,0.027665438130497932,-0.011565529741346836,0.005128045566380024,-0.023883342742919922,0.05094370245933533,-0.05791132152080536,0.056621819734573364,-0.08139798790216446,-0.19846968352794647,0.026872096583247185,-6.005913019180298e-05,13.38332462310791,6.991958141326904,6.391366481781006,1839.0,1790.0,0.0,0.0,0.04831232130527496,-0.031722333282232285,0.0022097912151366472,-0.033656105399131775,0.007055867463350296,0.10037291049957275,0.21825140714645386,-0.18680620193481445,-0.05374419316649437,0.09167353808879852,-0.062280669808387756,-6.005915201967582e-05,1.0,0.26312002539634705,0.8554400205612183,0,0.30000001192092896,0,0,0,0,0,0.0,0.0,0,2967814412,3812,757
827477062,5,428,2846,1479,49619225,49620,46338,286,-821,6485,693,370,35,-459,27.234375,-0.055793095380067825,0.003786139190196991,0.997038722038269,13.273065567016602,-8.875635147094727,0.27439117431640625,-0.7326177358627319,-1.6207261085510254,5.888921737670898,1585,1500,1859,1500,2000,1503,1000,1000,1822,1555,1475,1843,1786,1504,1494,274,363,1974,1975,0,,,,,1,1,1,1,1,1,1,0,1,1,0,0,stabilized_mix,-0.16105960309505463,0.07441355288028717,0.21629293262958527,-0.02162589319050312,0.05454118177294731,0.0642264112830162,0.0,0.13600000739097595,0.02162589319050312,0.08145882189273834,0.0,0.0,0.0,0.0,0.0,0.0,0.0,0.0,0.0,0.0,0.0,0.01971152424812317,0.0,0.0,-0.0,0.0,0.0,0.01971152424812317,0.37852370738983154,0.17105397582054138,13.376877784729004,0.028289316222071648,-0.012781474739313126,-0.0021823253482580185,-0.025585101917386055,0.04225993901491165,-0.06147302687168121,0.04002607613801956,-0.08715999871492386,-0.198075532913208,-0.002394514624029398,-7.016456220299006e-05,13.38332462310791,7.042485237121582,6.340839385986328,1843.0,1786.0,0.0,0.0,0.05146196484565735,-0.02205648273229599,0.002607325790449977,-0.03605320304632187,-0.0030001280829310417,0.100105881690979,0.2316586971282959,-0.15490905940532684,0.004789029248058796,0.09814608097076416,-0.04401642456650734,-7.016451127128676e-05,1.0,0.28169742226600647,0.8554400205612183,0,0.30000001192092896,0,0,0,0,0,0.0,0.0,0,2896398810,3812,757
827477062,5,428,2847,1479,49623255,49624,46342,288,1625,8197,3312,164,-118,-435,27.25,-0.0140337273478508,-0.05123601853847504,0.9680302143096924,12.868425369262695,-8.027034759521484,-4.569328784942627,-0.7306567430496216,-1.6042157411575317,5.877010345458984,1585,1500,1859,1500,2000,1503,1000,1000,1822,1553,1478,1837,1792,1504,1494,278,367,1974,1975,0,,,,,1,1,1,1,1,1,1,0,1,1,0,0,stabilized_mix,-0.11618997156620026,0.07233796268701553,0.25965991616249084,-0.021816037595272064,0.05388559401035309,0.06516851484775543,0.0,0.13600000739097595,0.021816037595272064,0.08211441338062286,0.0,0.0,0.0,0.0,0.0,0.0,0.0,0.0,0.0,0.0,0.0,0.011995428241789341,0.0,0.0,-0.0,0.0,0.0,0.011995428241789341,0.37496399879455566,0.17073199152946472,13.387535095214844,0.028001122176647186,-0.012747366912662983,-0.004212451167404652,-0.02400078810751438,0.03817572444677353,-0.05955076217651367,0.03478178381919861,-0.08310692757368088,-0.19765974581241608,0.03987491503357887,-5.522463470697403e-05,13.39387321472168,6.97305965423584,6.420813083648682,1837.0,1792.0,0.0,0.0,0.04904475808143616,-0.019095437601208687,0.002806080039590597,-0.033849895000457764,-0.005799910053610802,0.09978561848402023,0.22459639608860016,-0.1400981843471527,-0.07974983006715775,0.09366833418607712,-0.03829674795269966,-5.5224689276656136e-05,1.0,0.2686336934566498,0.8561142683029175,0,0.30000001192092896,0,0,0,0,0,0.0,0.0,0,1837748160,3812,757
827477062,5,428,2857,1488,49663573,49664,46382,284,1935,5410,430,501,-288,-438,27.21875,-0.06236673891544342,-0.04098070412874222,0.9889124035835266,14.191414833068848,-11.670463562011719,-2.2802298069000244,-0.970362663269043,-2.148204803466797,5.809749603271484,1585,1500,1858,1500,2000,1503,1000,1000,1821,1556,1467,1842,1792,1504,1479,318,30,1974,1976,2,,,88.11,-1.89,1,1,1,1,1,1,1,0,1,1,0,0,stabilized_mix,-0.236601322889328,0.1246899738907814,-0.054980695247650146,-0.02654854580760002,0.05385662242770195,0.070182666182518,0.0,0.13600000739097595,0.02654854580760002,0.0821433812379837,0.0,0.0,0.0,0.0,0.0,0.0,0.0,0.0,0.0,0.0,0.0,-0.026285391300916672,0.0,0.0,-0.0,0.0,0.0,-0.026285391300916672,0.5040236711502075,0.22755424678325653,13.434825897216797,0.03749861568212509,-0.016924116760492325,-0.0035461292136460543,-0.02226068079471588,0.055320337414741516,-0.06542541831731796,0.05222361534833908,-0.08738531172275543,-0.19531190395355225,0.019898759201169014,-6.139464676380157e-05,13.446202278137207,7.030074596405029,6.416128158569336,1842.0,1792.0,0.0,0.0,0.05184301733970642,-0.02916751243174076,0.002230033278465271,-0.031516194343566895,-0.004897464066743851,0.09916572272777557,0.24768690764904022,-0.20368801057338715,-0.03979751840233803,0.09886075556278229,-0.05768771097064018,-6.139459583209828e-05,1.0,0.2824217677116394,0.8594590425491333,0,0.30000001192092896,0,0,0,0,0,0.0,0.0,0,2888131843,3813,758
827477062,5,428,2858,1488,49667608,49668,46386,290,-1596,9457,3042,287,250,-523,27.265625,-0.051456667482852936,-0.007938314229249954,1.0827633142471313,15.282734870910645,-9.701583862304688,1.026318073272705,-1.0492483377456665,-2.132725715637207,5.801368713378906,1585,1500,1858,1500,2000,1503,1000,1000,1821,1561,1477,1846,1788,1504,1479,322,34,1974,1976,2,,,88.11,-1.89,1,1,1,1,1,1,1,0,1,1,0,0,stabilized_mix,-0.20266081392765045,0.14807157218456268,-0.1436377465724945,-0.027238288894295692,0.05427305027842522,0.0697622299194336,0.0,0.13600000739097595,0.027238288894295692,0.08172695338726044,0.0,0.0,0.0,0.0,0.0,0.0,0.0,0.0,0.0,0.0,0.0,-0.026285391300916672,0.0,0.0,-0.0,0.0,0.0,-0.026285391300916672,0.5003935694694519,0.2460537850856781,13.434635162353516,0.03722932189702988,-0.018300149589776993,-0.010173399932682514,-0.024861253798007965,0.04601579159498215,-0.07046358287334442,0.035613492131233215,-0.09554655104875565,-0.19501936435699463,-0.008956314995884895,-7.139146327972412e-05,13.446202278137207,7.080058574676514,6.366144180297852,1846.0,1788.0,0.0,0.0,0.05640478804707527,-0.019444582983851433,0.002645443193614483,-0.035200268030166626,-0.014044423587620258,0.09898282587528229,0.2667340338230133,-0.1693245768547058,0.01791262999176979,0.10806731134653091,-0.03931983560323715,-7.139148510759696e-05,1.0,0.30872270464897156,0.8594590425491333,0,0.30000001192092896,0,0,0,0,0,0.0,0.0,0,465969179,3813,758
827477062,5,428,2859,1488,49671642,49672,46390,288,-1013,10690,-1190,377,-93,-440,27.25,-0.0050604138523340225,-0.04149581491947174,1.054961085319519,13.827812194824219,-12.724870681762695,-3.9943950176239014,-1.1646901369094849,-2.3004379272460938,5.790008544921875,1585,1500,1859,1500,2000,1503,1000,1000,1822,1551,1463,1840,1794,1504,1479,326,38,1974,1976,2,,,88.11,-1.89,1,1,1,1,1,1,1,0,1,1,0,0,stabilized_mix,-0.25858837366104126,0.1883581578731537,-0.18682539463043213,-0.02814650349318981,0.05475253611803055,0.06899969279766083,0.0,0.13600000739097595,0.02814650349318981,0.0812474712729454,0.0,0.0,0.0,0.0,0.0,0.0,0.0,0.0,0.0,0.0,0.0,-0.026285391300916672,0.0,0.0,-0.0,0.0,0.0,-0.026285391300916672,0.5397228598594666,0.2730909585952759,13.43259048461914,0.04015849903225899,-0.02031129039824009,-0.0029804741498082876,-0.016508251428604126,0.06028659641742706,-0.06374523043632507,0.058071911334991455,-0.07960035651922226,-0.19462281465530396,0.034857671707868576,-5.59177715331316e-05,13.446202278137207,7.002690315246582,6.443512439727783,1840.0,1794.0,0.0,0.0,0.04736173897981644,-0.032669469714164734,0.0021951415110379457,-0.023372847586870193,-0.0041203126311302185,0.09882193803787231,0.24134084582328796,-0.22209088504314423,-0.06971534341573715,0.09007497131824493,-0.06418322026729584,-5.591779699898325e-05,1.0,0.25732284784317017,0.8594590425491333,0,0.30000001192092896,0,0,0,0,0,0.0,0.0,0,2766723724,3813,758
827477062,5,428,2860,1488,49675674,49676,46394,302,2360,6479,992,533,-367,-429,27.359375,-0.07473044097423553,-0.038566954433918,1.0339664220809937,14.7122220993042,-12.505736351013184,-3.472290515899658,-1.1923331022262573,-2.4547314643859863,5.783586502075195,1585,1500,1858,1500,2000,1503,1000,1000,1821,1555,1466,1841,1794,1504,1479,330,42,1974,1976,2,,,88.11,-1.89,1,1,1,1,1,1,1,0,1,1,0,0,stabilized_mix,-0.3107432425022125,0.17640261352062225,-0.288823664188385,-0.02862040512263775,0.05457119271159172,0.0678800642490387,0.0,0.13600000739097595,0.02862040512263775,0.08142881095409393,0.0,0.0,0.0,0.0,0.0,0.0,0.0,0.0,0.0,0.0,0.0,-0.02721267379820347,0.0,0.0,-0.0,0.0,0.0,-0.02721267379820347,0.5759556889533997,0.27956676483154297,13.432221412658691,0.04285241290926933,-0.02079104073345661,-0.0069520436227321625,-0.018816417083144188,0.059272728860378265,-0.06782227009534836,0.053024157881736755,-0.08610060065984726,-0.1943986415863037,0.030301451683044434,-5.74339646846056e-05,13.447470664978027,7.0109052658081055,6.436565399169922,1841.0,1794.0,0.0,0.0,0.051102813333272934,-0.029654545709490776,0.0022267780732363462,-0.026642868295311928,-0.00960622075945139,0.09888934344053268,0.25677672028541565,-0.21826627850532532,-0.06060290336608887,0.09742055088281631,-0.0585830993950367,-5.74340156163089e-05,1.0,0.27828118205070496,0.8595401644706726,0,0.30000001192092896,0,0,0,0,0,0.0,0.0,0,2307581225,3813,758
827477062,5,428,2861,1488,49679704,49680,46398,288,-386,8251,321,313,179,-598,27.25,-0.06052010506391525,-0.013497935608029366,1.0817159414291382,16.320728302001953,-11.231003761291504,-0.13610005378723145,-1.30103600025177,-2.6690897941589355,5.769771575927734,1585,1500,1858,1500,2000,1503,1000,1000,1821,1562,1476,1845,1790,1504,1479,334,46,1974,1976,2,,,88.11,-1.89,1,1,1,1,1,1,1,0,1,1,0,0,stabilized_mix,-0.37982553243637085,0.20632515847682953,-0.3674648106098175,-0.029913853853940964,0.055248867720365524,0.06652220338582993,0.0,0.13600000739097595,0.029913853853940964,0.08075113594532013,0.0,0.0,0.0,0.0,0.0,0.0,0.0,0.0,0.0,0.0,0.0,-0.02721267379820347,0.0,0.0,-0.0,0.0,0.0,-0.02721267379820347,0.6262158751487732,0.30499908328056335,13.42941951751709,0.04659639671444893,-0.02268272079527378,-0.016105584800243378,-0.022277459502220154,0.05328062176704407,-0.07525008916854858,0.03719061613082886,-0.09758865833282471,-0.1939164102077484,0.0011876970529556274,-6.745499558746815e-05,13.447470664978027,7.061010360717773,6.386460304260254,1845.0,1790.0,0.0,0.0,0.05762363597750664,-0.02033337578177452,0.002570405602455139,-0.03154391422867775,-0.022229444235563278,0.0988706648349762,0.28485044836997986,-0.19601799547672272,-0.002375394105911255,0.1103818342089653,-0.04105611890554428,-6.745504651917145e-05,1.0,0.31530502438545227,0.8595401644706726,0,0.30000001192092896,0,0,0,0,0,0.0,0.0,0,2774249845,3813,758
827477062,5,428,2862,1488,49683732,49684,46402,274,-400,11129,-650,460,-76,-458,27.140625,-0.06551655381917953,-0.05077862739562988,1.067798376083374,14.46263313293457,-14.557507514953613,-5.1571736335754395,-1.4104087352752686,-2.9232239723205566,5.754966735839844,1585,1500,1858,1500,2000,1503,1000,1000,1821,1550,1462,1839,1796,1504,1479,338,50,1974,1976,2,,,88.11,-1.89,1,1,1,1,1,1,1,0,1,1,0,0,stabilized_mix,-0.4575989544391632,0.2389255315065384,-0.4061378240585327,-0.030912356451153755,0.055174972862005234,0.06485306471586227,0.0,0.13600000739097595,0.030912356451153755,0.08082503080368042,0.0,0.0,0.0,0.0,0.0,0.0,0.0,0.0,0.0,0.0,0.0,-0.03313535824418068,0.0,0.0,-0.0,0.0,0.0,-0.03313535824418068,0.6862035989761353,0.33076152205467224,13.43398666381836,0.0510353147983551,-0.02458423748612404,-0.009813874028623104,-0.012498338706791401,0.06892481446266174,-0.0666310265660286,0.06013079732656479,-0.0781358852982521,-0.19339962303638458,0.04500482976436615,-5.193823017179966e-05,13.45556640625,6.98747444152832,6.46809196472168,1839.0,1796.0,0.0,0.0,0.04654589667916298,-0.033901363611221313,0.002164499368518591,-0.017709411680698395,-0.013577841222286224,0.09857019782066345,0.252420574426651,-0.25407642126083374,-0.0900096595287323,0.08848294615745544,-0.06651142984628677,-5.193817560211755e-05,1.0,0.25259894132614136,0.8600575923919678,0,0.30000001192092896,0,0,0,0,0,0.0,0.0,0,3855221162,3813,758
827477062,5,428,2863,1488,49687766,49688,46406,278,1642,8989,458,575,-329,-446,27.171875,-0.07843124866485596,-0.03083782270550728,1.0676785707473755,15.688177108764648,-14.242378234863281,-3.5515403747558594,-1.4251378774642944,-3.1326217651367188,5.746185302734375,1585,1500,1858,1500,2000,1503,1000,1000,1821,1556,1466,1841,1794,1504,1479,342,54,1974,1976,2,,,88.11,-1.89,1,1,1,1,1,1,1,0,1,1,0,0,stabilized_mix,-0.5079605579376221,0.2145383059978485,-0.4957854449748993,-0.032700665295124054,0.05590246617794037,0.06286858767271042,0.0,0.13600000739097595,0.032700665295124054,0.08009754121303558,0.0,0.0,0.0,0.0,0.0,0.0,0.0,0.0,0.0,0.0,0.0,-0.03313535824418068,0.0,0.0,-0.0,0.0,0.0,-0.03313535824418068,0.7353107333183289,0.33415040373802185,13.431303977966309,0.05469144880771637,-0.02483617328107357,-0.015400913543999195,-0.016342872753739357,0.0674867033958435,-0.07228518277406693,0.05283720791339874,-0.08799170702695847,-0.19309309124946594,0.030993036925792694,-5.673500709235668e-05,13.45556640625,7.011457920074463,6.444108009338379,1841.0,1794.0,0.0,0.0,0.05222483351826668,-0.029533149674534798,0.0021997636649757624,-0.023157652467489243,-0.02128767967224121,0.09872572869062424,0.27381035685539246,-0.24857638776302338,-0.06198607385158539,0.09961499273777008,-0.05840243026614189,-5.6735014368314296e-05,1.0,0.28437840938568115,0.8600575923919678,0,0.30000001192092896,0,0,0,0,0,0.0,0.0,0,3904898766,3813,758
827477062,5,428,2864,1488,49691873,49692,46410,280,485,8511,2235,358,67,-662,27.1875,-0.0693686380982399,-0.027090657502412796,1.0838285684585571,17.295696258544922,-13.000181198120117,-1.9881107807159424,-1.5414674282073975,-3.3007278442382812,5.726428985595703,1585,1500,1858,1500,2000,1503,1000,1000,1821,1563,1475,1843,1793,1504,1479,346,58,1974,1976,2,,,88.11,-1.89,1,1,1,1,1,1,1,0,1,1,0,0,stabilized_mix,-0.522691011428833,0.2450859546661377,-0.5443577170372009,-0.03417498245835304,0.056331273168325424,0.06068727374076843,0.0,0.13600000739097595,0.03417498245835304,0.07966873049736023,0.0,0.0,0.0,0.0,0.0,0.0,0.0,0.0,0.0,0.0,0.0,-0.0423051156103611,0.0,0.0,-0.0,0.0,0.0,-0.0423051156103611,0.7754489779472351,0.3616968095302582,13.440893173217773,0.05762937664985657,-0.026859041303396225,-0.0231642909348011,-0.01943240687251091,0.061597660183906555,-0.0796339139342308,0.03888518363237381,-0.09878948330879211,-0.19240346550941467,0.017349539324641228,-6.126891821622849e-05,13.468101501464844,7.040395259857178,6.427706241607666,1843.0,1793.0,0.0,0.0,0.058387190103530884,-0.02131829597055912,0.002497269306331873,-0.02755717933177948,-0.03201637789607048,0.09864738583564758,0.3018668293952942,-0.22689595818519592,-0.034699078649282455,0.11190515756607056,-0.04298621788620949,-6.12688745604828e-05,1.0,0.31916671991348267,0.8608588576316833,0,0.30000001192092896,0,0,0,0,0,0.0,0.0,0,1432390650,3813,758
827477062,5,428,2874,1497,49731140,49732,46449,302,3011,7580,1475,763,-510,-507,27.359375,-0.039941318333148956,-0.04785194247961044,1.032620906829834,19.762622833251953,-20.808609008789062,-5.591622829437256,-2.2904651165008545,-4.162325859069824,5.57342529296875,1586,1500,1859,1500,2000,1503,1000,1000,1822,1563,1445,1839,1799,1511,1479,18,98,1975,1976,3,90.99,0.99,88.11,-1.89,1,1,1,1,1,1,1,0,1,1,0,0,stabilized_mix,-0.38867446780204773,0.26914557814598083,-0.6840455532073975,-0.04908708482980728,0.06409753859043121,0.0349547453224659,0.0,0.13760000467300415,0.04908708482980728,0.07350246608257294,0.0,0.0,0.0,0.0,0.0,0.0,0.0,0.0,0.0,0.0,0.0,-0.06808417290449142,0.0,0.0,-0.0,0.0,0.0,-0.06808417290449142,0.9801049828529358,0.5382444858551025,13.456964492797852,0.07270417362451553,-0.03987066075205803,-0.013795030303299427,-0.009097217582166195,0.09842996299266815,-0.09078403562307358,0.08611977845430374,-0.09833648055791855,-0.18706263601779938,0.04879611358046532,-4.839326720684767e-05,13.503340721130371,6.993636608123779,6.509704113006592,1839.0,1799.0,0.0,0.0,0.05879603326320648,-0.04869997873902321,0.0008777773473411798,-0.012937616556882858,-0.0191167201846838,0.09712415933609009,0.34492284059524536,-0.36317873001098633,-0.09759222716093063,0.1116868108510971,-0.09536521881818771,-4.839327812078409e-05,1.0,0.317712664604187,0.8631112575531006,0,0.30000001192092896,0,0,0,0,0,0.0,0.0,0,3862946937,3814,759
827477062,5,428,2875,1497,49735187,49736,46453,272,-2636,9558,-1815,592,271,-861,27.125,-0.037078242748975754,0.04878636449575424,1.1339247226715088,21.986980438232422,-19.89128303527832,-0.2603750228881836,-2.457101345062256,-4.291947841644287,5.542989730834961,1586,1500,1859,1500,2000,1503,1000,1000,1822,1573,1453,1846,1793,1511,1479,22,102,1975,1976,3,90.99,0.99,88.11,-1.89,1,1,1,1,1,1,1,0,1,1,0,0,stabilized_mix,-0.4191288352012634,0.2994624972343445,-0.7203406095504761,-0.04929171875119209,0.06436869502067566,0.032198674976825714,0.0,0.13760000467300415,0.04929171875119209,0.07323130965232849,0.0,0.0,0.0,0.0,0.0,0.0,0.0,0.0,0.0,0.0,0.0,-0.07433165609836578,0.0,0.0,-0.0,0.0,0.0,-0.07433165609836578,1.0112100839614868,0.5776483416557312,13.461600303649902,0.07497730106115341,-0.04276417940855026,-0.020288076251745224,-0.01396280899643898,0.09418514370918274,-0.10097061842679977,0.07390785962343216,-0.11494419723749161,-0.18600022792816162,0.002272200770676136,-6.430479697883129e-05,13.511880874633789,7.077464580535889,6.4344162940979,1846.0,1793.0,0.0,0.0,0.06837702542543411,-0.04137935861945152,0.0009103068732656538,-0.019866060465574265,-0.02808241732418537,0.0972188413143158,0.3837451934814453,-0.3471683859825134,-0.004544401541352272,0.1305527538061142,-0.08177290856838226,-6.43048042547889e-05,1.0,0.37114542722702026,0.8636571168899536,0,0.30000001192092896,0,0,0,0,0,0.0,0.0,0,2431357606,3814,759
827477062,5,428,2876,1497,49739175,49740,46457,284,2663,9772,2898,765,-483,-605,27.21875,-0.11607715487480164,-0.15695273876190186,1.0356087684631348,18.720836639404297,-22.618337631225586,-12.54056167602539,-2.624980926513672,-4.353874683380127,5.516078948974609,1586,1500,1859,1500,2000,1503,1000,1000,1822,1550,1437,1830,1808,1511,1479,26,106,1975,1976,3,90.99,0.99,88.11,-1.89,1,1,1,1,1,1,1,0,1,1,0,0,stabilized_mix,-0.4282439351081848,0.38212159276008606,-0.6406956911087036,-0.05059097707271576,0.06533519923686981,0.02945033088326454,0.0,0.13760000467300415,0.05059097707271576,0.07226480543613434,0.0,0.0,0.0,0.0,0.0,0.0,0.0,0.0,0.0,0.0,0.0,-0.07433165609836578,0.0,0.0,-0.0,0.0,0.0,-0.07433165609836578,1.0257724523544312,0.6170384883880615,13.458751678466797,0.0760689526796341,-0.04568225145339966,-0.010655165649950504,0.003220158629119396,0.10676857084035873,-0.08593041449785233,0.09933356940746307,-0.07884294539690018,-0.18506085872650146,0.10943704843521118,-2.6468303985893726e-05,13.511880874633789,6.88828182220459,6.623599052429199,1830.0,1808.0,0.0,0.0,0.047539934515953064,-0.056696850806474686,0.001047360710799694,0.004581855610013008,-0.014800159260630608,0.09566393494606018,0.32674023509025574,-0.3947644531726837,-0.21887409687042236,0.08965349197387695,-0.11021144688129425,-2.6468333089724183e-05,1.0,0.32092225551605225,0.8636571168899536,0,0.30000001192092896,0,0,0,0,0,0.0,0.0,0,3119272275,3814,759
827477062,5,428,2877,1497,49743226,49744,46461,266,2498,7166,426,799,-457,-592,27.078125,-0.015205217525362968,-0.035953134298324585,1.0260002613067627,21.56159019470215,-22.314266204833984,-5.15369176864624,-2.5307834148406982,-4.368893146514893,5.501394271850586,1586,1500,1859,1500,2000,1503,1000,1000,1822,1568,1440,1840,1800,1511,1479,30,110,1975,1976,3,90.99,0.99,88.11,-1.89,1,1,1,1,1,1,1,0,1,1,0,0,stabilized_mix,-0.3715088367462158,0.26766687631607056,-0.6841251850128174,-0.05091819912195206,0.06582661718130112,0.026610814034938812,0.0,0.13760000467300415,0.05091819912195206,0.07177338749170303,0.0,0.0,0.0,0.0,0.0,0.0,0.0,0.0,0.0,0.0,0.0,-0.0810527503490448,0.0,0.0,-0.0,0.0,0.0,-0.0810527503490448,1.0300039052963257,0.5953034162521362,13.468631744384766,0.07632571458816528,-0.04404206946492195,-0.012795547023415565,-0.00954782497137785,0.10553178936243057,-0.09894288331270218,0.09422589093446732,-0.10697469860315323,-0.1845482736825943,0.044974446296691895,-4.885089583694935e-05,13.521069526672363,7.004789352416992,6.516280174255371,1840.0,1800.0,0.0,0.0,0.06399433314800262,-0.05326982960104942,0.0003313050838187337,-0.013593088835477829,-0.01773994043469429,0.09643180668354034,0.3763207495212555,-0.3894574046134949,-0.08994889259338379,0.1216200441122055,-0.10435975342988968,-4.8850837629288435e-05,1.0,0.3455158770084381,0.8642444610595703,0,0.30000001192092896,0,0,0,0,0,0.0,0.0,0,2673981164,3814,759
827477062,5,428,2878,1497,49747237,49748,46465,276,-5713,11025,-2573,640,375,-873,27.15625,-0.04266367852687836,0.05031408369541168,1.1499698162078857,22.441923141479492,-22.07838249206543,-1.3560295104980469,-2.7536721229553223,-4.502878665924072,5.4655914306640625,1586,1500,1859,1500,2000,1503,1000,1000,1822,1571,1444,1845,1795,1511,1479,34,114,1975,1976,3,90.99,0.99,88.11,-1.89,1,1,1,1,1,1,1,0,1,1,0,0,stabilized_mix,-0.4145579934120178,0.34172874689102173,-0.7035699486732483,-0.052207816392183304,0.0670107752084732,0.023953327909111977,0.0,0.13760000467300415,0.052207816392183304,0.07058922946453094,0.0,0.0,0.0,0.0,0.0,0.0,0.0,0.0,0.0,0.0,0.0,-0.0810527503490448,0.0,0.0,-0.0,0.0,0.0,-0.0810527503490448,1.0615280866622925,0.6475761532783508,13.463770866394043,0.07868053019046783,-0.04791218414902687,-0.01700679585337639,-0.00858908612281084,0.10446041077375412,-0.10299593210220337,0.08780235797166824,-0.11122670024633408,-0.1832985132932663,0.011833589524030685,-6.001268047839403e-05,13.521069526672363,7.060598373413086,6.460471153259277,1845.0,1795.0,0.0,0.0,0.06640087068080902,-0.049494728446006775,0.0004533297324087471,-0.012228673323988914,-0.023567231371998787,0.09609635919332504,0.39168545603752136,-0.38534045219421387,-0.02366717904806137,0.12643496692180634,-0.09721788763999939,-6.001272049616091e-05,1.0,0.359194815158844,0.8642444610595703,0,0.30000001192092896,0,0,0,0,0,0.0,0.0,0,2982585418,3814,759
827477062,5,428,2879,1497,49751270,49752,46469,288,5382,9012,3393,825,-721,-577,27.25,-0.11865954101085663,-0.20015309751033783,1.0136256217956543,19.373310089111328,-24.306745529174805,-14.848929405212402,-2.8817036151885986,-4.4598565101623535,5.436838150024414,1586,1500,1859,1500,2000,1503,1000,1000,1822,1549,1429,1827,1812,1511,1479,38,118,1975,1976,3,90.99,0.99,88.11,-1.89,1,1,1,1,1,1,1,0,1,1,0,0,stabilized_mix,-0.36851388216018677,0.4093894064426422,-0.6076324582099915,-0.05330154299736023,0.06804053485393524,0.021266015246510506,0.0,0.13760000467300415,0.05330154299736023,0.06955946981906891,0.0,0.0,0.0,0.0,0.0,0.0,0.0,0.0,0.0,0.0,0.0,-0.0810527503490448,0.0,0.0,-0.0,0.0,0.0,-0.0810527503490448,1.0514065027236938,0.6777001619338989,13.463083267211914,0.07793732732534409,-0.050142791122198105,-0.006566151045262814,0.007469761185348034,0.11467095464468002,-0.0888737365603447,0.11207997798919678,-0.07647008448839188,-0.1822948455810547,0.12958134710788727,-1.8449733033776283e-05,13.521069526672363,6.852783203125,6.668286323547363,1827.0,1812.0,0.0,0.0,0.046314820647239685,-0.06413676589727402,0.0007727434858679771,0.010636921972036362,-0.009129270911216736,0.09429019689559937,0.33812806010246277,-0.42423275113105774,-0.25916269421577454,0.08702202141284943,-0.12440488487482071,-1.8449723938829266e-05,1.0,0.36193886399269104,0.8642444610595703,0,0.30000001192092896,0,0,0,0,0,0.0,0.0,0,2774346959,3814,759
827477062,5,428,2880,1497,49755315,49756,46473,288,3783,6058,-1091,793,-460,-722,27.25,0.022742493078112602,-0.012144200503826141,1.0252128839492798,23.659936904907227,-23.575403213500977,-4.970564365386963,-2.777048349380493,-4.419441223144531,5.416360855102539,1586,1500,1859,1500,2000,1503,1000,1000,1822,1575,1434,1840,1800,1511,1479,42,122,1975,1976,3,90.99,0.99,88.11,-1.89,1,1,1,1,1,1,1,0,1,1,0,0,stabilized_mix,-0.2929711937904358,0.26503580808639526,-0.6680196523666382,-0.053672321140766144,0.06934577226638794,0.01855088584125042,0.0,0.13760000467300415,0.053672321140766144,0.06825423240661621,0.0,0.0,0.0,0.0,0.0,0.0,0.0,0.0,0.0,0.0,0.0,-0.09074141085147858,0.0,0.0,-0.0,0.0,0.0,-0.09074141085147858,1.042918086051941,0.6537832021713257,13.478224754333496,0.07722412049770355,-0.04832440987229347,-0.009173915721476078,-0.010949977673590183,0.11155027151107788,-0.10850148648023605,0.10396905988454819,-0.11792587488889694,-0.181580051779747,0.04337635636329651,-4.837126471102238e-05,13.534313201904297,7.009012699127197,6.525300025939941,1840.0,1800.0,0.0,0.0,0.07056142389774323,-0.058716725558042526,-0.0004043114895466715,-0.015606962144374847,-0.012716546654701233,0.09549553692340851,0.4129438102245331,-0.41146841645240784,-0.08675271272659302,0.1341477632522583,-0.1150817722082138,-4.837129017687403e-05,1.0,0.38073351979255676,0.8650909662246704,0,0.30000001192092896,0,0,0,0,0,0.0,0.0,0,4104733378,3814,759
827477062,5,428,2881,1497,49759335,49760,46477,292,-7538,11614,-3009,736,445,-883,27.28125,-0.05725261569023132,0.049823157489299774,1.1433544158935547,22.925975799560547,-24.599626541137695,-2.338505744934082,-3.0299763679504395,-4.579844951629639,5.377355575561523,1586,1500,1859,1500,2000,1503,1000,1000,1822,1569,1432,1844,1798,1511,1479,46,126,1975,1976,3,90.99,0.99,88.11,-1.89,1,1,1,1,1,1,1,0,1,1,0,0,stabilized_mix,-0.37432995438575745,0.3640194535255432,-0.6690734028816223,-0.054688915610313416,0.07054807990789413,0.015998754650354385,0.0,0.13760000467300415,0.054688915610313416,0.06705192476511002,0.0,0.0,0.0,0.0,0.0,0.0,0.0,0.0,0.0,0.0,0.0,-0.09074141085147858,0.0,0.0,-0.0,0.0,0.0,-0.09074141085147858,1.0806916952133179,0.7131181359291077,13.472238540649414,0.08004479855298996,-0.05271405354142189,-0.009775524958968163,-0.0037426704075187445,0.11628642678260803,-0.10512193292379379,0.10719999670982361,-0.10810361057519913,-0.18021850287914276,0.020407311618328094,-5.593395326286554e-05,13.534313201904297,7.046826362609863,6.487486839294434,1844.0,1798.0,0.0,0.0,0.06484545022249222,-0.060779672116041183,-0.0002010631433222443,-0.005333138629794121,-0.01356600597500801,0.09464056044816971,0.40013375878334045,-0.4293444752693176,-0.04081462323665619,0.12301893532276154,-0.11877771466970444,-5.593391688307747e-05,1.0,0.34914806485176086,0.8650909662246704,0,0.30000001192092896,0,0,0,0,0,0.0,0.0,0,2003436541,3814,759
827477062,5,428,2892,1507,49803691,49804,46521,280,-4609,7227,-5303,901,322,-1003,27.1875,0.01969248801469803,0.13950824737548828,1.0993660688400269,27.880271911621094,-27.799345016479492,2.0975890159606934,-3.543785572052002,-4.555289268493652,5.058353424072266,1586,1500,1859,1500,2000,1503,1000,1000,1822,1588,1416,1850,1796,1511,1479,90,170,1975,1976,3,90.99,0.99,88.11,-1.89,1,1,1,1,1,1,1,0,1,1,0,0,stabilized_mix,-0.20533300936222076,0.21788859367370605,-0.5395545363426208,-0.05539793148636818,0.07795967906713486,-0.009180869907140732,0.0,0.13760000467300415,0.05539793148636818,0.05964032560586929,0.0,0.0,0.0,0.0,0.0,0.0,0.0,0.0,0.0,0.0,0.0,-0.1296509951353073,0.0,0.0,-0.0,0.0,0.0,-0.1296509951353073,1.0791339874267578,0.8372082114219666,13.518683433532715,0.07965647429227829,-0.06165509670972824,0.0010749839711934328,-0.009756349958479404,0.1314680278301239,-0.12744852900505066,0.13173165917396545,-0.1380857229232788,-0.16908323764801025,-0.018304917961359024,-6.558583118021488e-05,13.587503433227539,7.121680736541748,6.465822219848633,1850.0,1796.0,0.0,0.0,0.08282154053449631,-0.07444610446691513,-0.0024307870771735907,-0.013960912823677063,0.0014928057789802551,0.09044978767633438,0.4866025447845459,-0.48519009351730347,0.03660983592271805,0.15756258368492126,-0.14584897458553314,-6.558585300808772e-05,1.0,0.44543805718421936,0.8684908151626587,0,0.30000001192092896,0,0,0,0,0,0.0,0.0,0,331315207,3815,760
827477062,5,428,2893,1507,49807727,49808,46525,300,-2461,14217,-127,860,-171,-838,27.34375,-0.1378582864999771,-0.151308074593544,1.0866975784301758,24.247682571411133,-28.011180877685547,-10.571427345275879,-3.962512493133545,-4.626190185546875,5.020900726318359,1586,1500,1859,1500,2000,1503,1000,1000,1822,1559,1412,1833,1811,1511,1479,94,174,1975,1976,3,90.99,0.99,88.11,-1.89,1,1,1,1,1,1,1,0,1,1,0,0,stabilized_mix,-0.23799832165241241,0.4163990318775177,-0.4351223409175873,-0.05568205565214157,0.07885189354419708,-0.01098217535763979,0.0,0.13760000467300415,0.05568205565214157,0.05874811112880707,0.0,0.0,0.0,0.0,0.0,0.0,0.0,0.0,0.0,0.0,0.0,-0.1296509951353073,0.0,0.0,-0.0,0.0,0.0,-0.1296509951353073,1.0958939790725708,0.9358887076377869,13.510862350463867,0.08093488216400146,-0.06893321126699448,0.00279352068901062,0.013912475667893887,0.13177722692489624,-0.1107713058590889,0.1381720006465912,-0.09277341514825821,-0.16777588427066803,0.09225310385227203,-2.6433030143380165e-05,13.587503433227539,6.92591667175293,6.661586284637451,1833.0,1811.0,0.0,0.0,0.05627073720097542,-0.0791207104921341,-0.0007089023129083216,0.019906381145119667,0.0038963928818702698,0.08786829560995102,0.42320188879966736,-0.48888733983039856,-0.18450620770454407,0.1060434877872467,-0.15373824536800385,-2.643297193571925e-05,1.0,0.4457092881202698,0.8684908151626587,0,0.30000001192092896,0,0,0,0,0,0.0,0.0,0,2631672586,3815,760
827477062,5,428,2894,1507,49811851,49812,46529,282,9885,2419,4375,976,-915,-756,27.203125,0.017963677644729614,-0.143010213971138,0.9235820770263672,26.760032653808594,-29.25865936279297,-10.58387565612793,-3.706648826599121,-4.34365177154541,5.00798225402832,1586,1500,1859,1500,2000,1503,1000,1000,1822,1575,1401,1834,1811,1511,1479,98,178,1975,1976,3,90.99,0.99,88.11,-1.89,1,1,1,1,1,1,1,0,1,1,0,0,stabilized_mix,-0.0773327425122261,0.23624417185783386,-0.433719664812088,-0.054767098277807236,0.0783597081899643,-0.012962330132722855,0.0,0.13760000467300415,0.054767098277807236,0.059240296483039856,0.0,0.0,0.0,0.0,0.0,0.0,0.0,0.0,0.0,0.0,0.0,-0.1356302946805954,0.0,0.0,-0.0,0.0,0.0,-0.1356302946805954,1.0297151803970337,0.8764103055000305,13.528267860412598,0.07596933096647263,-0.06450715661048889,0.013531377539038658,0.000844887166749686,0.13795629143714905,-0.12222820520401001,0.155599445104599,-0.11717566102743149,-0.1673249453306198,0.09236174076795578,-2.6237103156745434e-05,13.595677375793457,6.9290242195129395,6.666653156280518,1834.0,1811.0,0.0,0.0,0.0708741620182991,-0.08864700794219971,-0.002541695721447468,0.0012096446007490158,0.018843814730644226,0.08844825625419617,0.4670506715774536,-0.51065993309021,-0.18472348153591156,0.13390257954597473,-0.17264288663864136,-2.623712134663947e-05,1.0,0.5015034675598145,0.869013249874115,0,0.30000001192092896,0,0,0,0,0,0.0,0.0,0,1514738897,3815,760
827477062,5,428,2895,1507,49815795,49816,46533,284,-5212,7010,-4903,895,359,-1009,27.21875,0.006627790629863739,0.12139443308115005,1.072849988937378,28.269861221313477,-27.538026809692383,1.0286941528320312,-3.746427536010742,-4.616293430328369,4.980627059936523,1586,1500,1859,1500,2000,1503,1000,1000,1822,1587,1418,1849,1798,1511,1479,102,182,1975,1976,3,90.99,0.99,88.11,-1.89,1,1,1,1,1,1,1,0,1,1,0,0,stabilized_mix,-0.2240407019853592,0.2336496263742447,-0.48120546340942383,-0.05527063086628914,0.07932249456644058,-0.014687079936265945,0.0,0.13760000467300415,0.05527063086628914,0.05827751010656357,0.0,0.0,0.0,0.0,0.0,0.0,0.0,0.0,0.0,0.0,0.0,-0.1356302946805954,0.0,0.0,-0.0,0.0,0.0,-0.1356302946805954,1.0942124128341675,0.8854722380638123,13.522613525390625,0.08074131608009338,-0.06517508625984192,-0.0007969503058120608,-0.006587722338736057,0.13011139631271362,-0.1291622519493103,0.12890100479125977,-0.13619458675384521,-0.16637006402015686,-0.008977049961686134,-6.137148011475801e-05,13.595677375793457,7.104696273803711,6.490981578826904,1849.0,1798.0,0.0,0.0,0.08167774975299835,-0.07290506362915039,-0.0022193368058651686,-0.009432516992092133,-0.0011070966720581055,0.08908858895301819,0.4934021532535553,-0.48062923550605774,0.01795409992337227,0.1555103212594986,-0.14285440742969513,-6.137148739071563e-05,1.0,0.43937188386917114,0.869013249874115,0,0.30000001192092896,0,0,0,0,0,0.0,0.0,0,3549003111,3815,760
827477062,5,428,2896,1507,49819824,49820,46537,288,-1452,14599,1915,790,-239,-794,27.25,-0.20763595402240753,-0.14945805072784424,1.0845545530319214,24.510404586791992,-26.940025329589844,-12.290103912353516,-4.0741400718688965,-4.754483222961426,4.938438415527344,1586,1500,1859,1500,2000,1503,1000,1000,1822,1558,1419,1831,1814,1511,1479,106,186,1975,1976,3,90.99,0.99,88.11,-1.89,1,1,1,1,1,1,1,0,1,1,0,0,stabilized_mix,-0.291490763425827,0.38864651322364807,-0.40874022245407104,-0.05562729015946388,0.08013741672039032,-0.0163615420460701,0.0,0.13760000467300415,0.05562729015946388,0.05746258795261383,0.0,0.0,0.0,0.0,0.0,0.0,0.0,0.0,0.0,0.0,0.0,-0.1356302946805954,0.0,0.0,-0.0,0.0,0.0,-0.1356302946805954,1.1268937587738037,0.962611734867096,13.514656066894531,0.08319064229726791,-0.0708620697259903,-0.0031386660411953926,0.015542327426373959,0.12662160396575928,-0.11190740019083023,0.12765225768089294,-0.09180028736591339,-0.16489741206169128,0.10725139081478119,-2.01760558411479e-05,13.595677375793457,6.898719310760498,6.696958541870117,1831.0,1814.0,0.0,0.0,0.055559974163770676,-0.07310737669467926,-0.00031907943775877357,0.022252477705478668,-0.004383515566587448,0.08658532798290253,0.42778724431991577,-0.4701921343803406,-0.21450278162956238,0.10499796271324158,-0.14219854772090912,-2.01761067728512e-05,1.0,0.41196906566619873,0.869013249874115,0,0.30000001192092896,0,0,0,0,0,0.0,0.0,0,3422816921,3815,760
827477062,5,428,2897,1507,49823855,49824,46541,284,9131,2967,2581,945,-936,-817,27.21875,0.034662485122680664,-0.12460099160671234,0.9391750693321228,27.40642547607422,-28.25457191467285,-10.935413360595703,-3.874166965484619,-4.515806198120117,4.9205474853515625,1586,1500,1859,1500,2000,1503,1000,1000,1822,1576,1408,1833,1813,1511,1479,110,190,1975,1976,3,90.99,0.99,88.11,-1.89,1,1,1,1,1,1,1,0,1,1,0,0,stabilized_mix,-0.13737814128398895,0.2501704692840576,-0.39788293838500977,-0.054977502673864365,0.07986317574977875,-0.01812221296131611,0.0,0.13760000467300415,0.054977502673864365,0.0577368289232254,0.0,0.0,0.0,0.0,0.0,0.0,0.0,0.0,0.0,0.0,0.0,-0.1421767622232437,0.0,0.0,-0.0,0.0,0.0,-0.1421767622232437,1.0711480379104614,0.9163491725921631,13.531399726867676,0.07899545133113861,-0.06740674376487732,0.006674009375274181,0.002103229518979788,0.1331290304660797,-0.12511399388313293,0.14405864477157593,-0.11880310624837875,-0.16427288949489594,0.09542948007583618,-2.409517765045166e-05,13.604625701904297,6.922788619995117,6.68183708190918,1833.0,1813.0,0.0,0.0,0.07167334854602814,-0.08203147351741791,-0.0021395820658653975,0.0030135512351989746,0.009299315512180328,0.08718615770339966,0.47833237051963806,-0.4931353032588959,-0.19085896015167236,0.1358433961868286,-0.16000407934188843,-2.409519220236689e-05,1.0,0.46457335352897644,0.8695852160453796,0,0.30000001192092896,0,0,0,0,0,0.0,0.0,0,3941491150,3815,760
827477062,5,428,2898,1507,49827892,49828,46545,284,-4040,4658,-5112,915,267,-1014,27.21875,0.0026076510548591614,0.038893721997737885,1.0409269332885742,28.285837173461914,-26.85452651977539,-2.110443115234375,-3.973626136779785,-4.875771999359131,4.884008407592773,1586,1500,1859,1500,2000,1503,1000,1000,1822,1582,1424,1844,1802,1511,1479,114,194,1975,1976,3,90.99,0.99,88.11,-1.89,1,1,1,1,1,1,1,0,1,1,0,0,stabilized_mix,-0.3146018981933594,0.27651339769363403,-0.4460090398788452,-0.05583242326974869,0.08080646395683289,-0.019747024402022362,0.0,0.13760000467300415,0.05583242326974869,0.056793540716171265,0.0,0.0,0.0,0.0,0.0,0.0,0.0,0.0,0.0,0.0,0.0,-0.1421767622232437,0.0,0.0,-0.0,0.0,0.0,-0.1421767622232437,1.1563334465026855,0.9393519759178162,13.522808074951172,0.08530235290527344,-0.0691014975309372,-0.007853255607187748,-0.0011780483182519674,0.12666717171669006,-0.12915027141571045,0.11958927661180496,-0.12956970930099487,-0.16299743950366974,0.01841709017753601,-5.060317926108837e-05,13.604625701904297,7.055328845977783,6.549296855926514,1844.0,1802.0,0.0,0.0,0.07767447084188461,-0.06774742901325226,-0.0015254671452566981,-0.001689370721578598,-0.010924581438302994,0.08744146674871445,0.4936809837818146,-0.4686999022960663,-0.03683418035507202,0.14808766543865204,-0.13279135525226593,-5.060312105342746e-05,1.0,0.4181250333786011,0.8695852160453796,0,0.30000001192092896,0,0,0,0,0,0.0,0.0,0,1795691446,3815,760
827477062,5,428,2899,1507,49831924,49832,46549,268,-3199,15853,5152,717,-295,-784,27.09375,-0.23277992010116577,-0.12105641514062881,1.1016720533370972,25.199901580810547,-24.900615692138672,-13.912858963012695,-4.146492958068848,-4.945530414581299,4.837619781494141,1586,1500,1859,1500,2000,1503,1000,1000,1822,1561,1431,1829,1817,1511,1479,118,198,1975,1976,3,90.99,0.99,88.11,-1.89,1,1,1,1,1,1,1,0,1,1,0,0,stabilized_mix,-0.34116050601005554,0.35079631209373474,-0.3890913128852844,-0.05503029003739357,0.08009462803602219,-0.021298224106431007,0.0,0.13760000467300415,0.05503029003739357,0.057505376636981964,0.0,0.0,0.0,0.0,0.0,0.0,0.0,0.0,0.0,0.0,0.0,-0.1490919589996338,0.0,0.0,-0.0,0.0,0.0,-0.1490919589996338,1.1736513376235962,0.9807256460189819,13.527891159057617,0.08654119819402695,-0.07210006564855576,-0.013586505316197872,0.01471781451255083,0.11687126010656357,-0.11491303890943527,0.10806765407323837,-0.09542670100927353,-0.1613781750202179,0.12141259759664536,-1.398799940943718e-05,13.614078521728516,6.876979351043701,6.7370991706848145,1829.0,1817.0,0.0,0.0,0.05746502801775932,-0.06178578361868858,0.00019114662427455187,0.02109946869313717,-0.018988456577062607,0.08531197905540466,0.4398212432861328,-0.4345977306365967,-0.2428251951932907,0.10928181558847427,-0.1205979585647583,-1.3987951206217986e-05,1.0,0.34903571009635925,0.8701894283294678,0,0.30000001192092896,0,0,0,0,0,0.0,0.0,0,645697715,3815,760
827477062,5,428,2909,1516,49871230,49872,46588,300,3264,5435,-1568,904,-322,-1032,27.34375,-0.04426255077123642,-0.09441052377223969,1.0308881998062134,30.32583999633789,-25.029884338378906,-6.2214250564575195,-4.320213317871094,-4.353679180145264,4.483598709106445,1583,1500,1859,1500,2000,1503,1000,1000,1822,1587,1424,1838,1810,1511,1479,158,238,1975,1976,3,90.99,0.99,88.11,-1.89,1,1,1,1,1,1,1,0,1,1,0,0,stabilized_mix,-0.04637408256530762,0.2729717791080475,-0.47749805450439453,-0.05321153253316879,0.08322209119796753,-0.037350088357925415,0.0,0.13279999792575836,0.05321153253316879,0.04957790672779083,0.0,0.0,0.0,0.0,0.0,0.0,0.0,0.0,0.0,0.0,0.0,-0.1639205366373062,0.0,0.0,-0.0,0.0,0.0,-0.1639205366373062,1.03502357006073,1.0241189002990723,13.556379318237305,0.07620172202587128,-0.0751839429140091,-0.0017149411141872406,-0.000382296449970454,0.1178707405924797,-0.13821753859519958,0.11877434700727463,-0.1364918053150177,-0.1490205079317093,0.05429217591881752,-3.315496724098921e-05,13.634349822998047,6.982949733734131,6.651400089263916,1838.0,1810.0,0.0,0.0,0.08168156445026398,-0.06730059534311295,-0.0017619568388909101,-0.0005479715764522552,-0.0023894570767879486,0.08015929162502289,0.529285728931427,-0.43685388565063477,-0.10858435183763504,0.15629220008850098,-0.13205558061599731,-3.315491630928591e-05,1.0,0.440328449010849,0.87148517370224,0,0.30000001192092896,0,0,0,0,0,0.0,0.0,0,3752707872,3816,761
827477062,5,428,2910,1516,49875290,49876,46592,280,-3007,9500,2857,639,136,-1010,27.1875,-0.09165467321872711,-0.013998158276081085,1.0839567184448242,30.283357620239258,-22.296640396118164,-5.326437473297119,-4.399146556854248,-4.356055736541748,4.450799942016602,1583,1500,1859,1500,2000,1503,1000,1000,1822,1586,1439,1839,1810,1511,1479,162,242,1975,1976,3,90.99,0.99,88.11,-1.89,1,1,1,1,1,1,1,0,1,1,0,0,stabilized_mix,-0.06966570019721985,0.27938148379325867,-0.47656330466270447,-0.05169525370001793,0.08268699795007706,-0.0391404889523983,0.0,0.13279999792575836,0.05169525370001793,0.050112999975681305,0.0,0.0,0.0,0.0,0.0,0.0,0.0,0.0,0.0,0.0,0.0,-0.16854539513587952,0.0,0.0,-0.0,0.0,0.0,-0.16854539513587952,1.0360676050186157,1.043274164199829,13.561199188232422,0.07625128328800201,-0.07655736058950424,-0.011211234144866467,0.0006507428479380906,0.10488944500684738,-0.13795867562294006,0.09586533159017563,-0.13569125533103943,-0.1478756070137024,0.04648193344473839,-3.5487813875079155e-05,13.64067268371582,6.997775077819824,6.642897129058838,1839.0,1810.0,0.0,0.0,0.08093923330307007,-0.05414814502000809,-0.0006468246574513614,0.0009362958371639252,-0.015625473111867905,0.0795559287071228,0.5285443067550659,-0.3891497850418091,-0.09296386688947678,0.15545335412025452,-0.1067332848906517,-3.54877847712487e-05,1.0,0.4377620816230774,0.8718892931938171,0,0.30000001192092896,0,0,0,0,0,0.0,0.0,0,150962473,3816,761
827477062,5,428,2911,1516,49879297,49880,46596,288,-745,10102,553,705,-389,-900,27.25,-0.06337682157754898,-0.08456571400165558,1.013523817062378,28.885347366333008,-23.950788497924805,-9.341880798339844,-4.461661338806152,-4.470352649688721,4.424337387084961,1583,1500,1859,1500,2000,1503,1000,1000,1822,1577,1431,1834,1815,1511,1479,166,246,1975,1976,3,90.99,0.99,88.11,-1.89,1,1,1,1,1,1,1,0,1,1,0,0,stabilized_mix,-0.12321604788303375,0.3143942952156067,-0.4572174549102783,-0.05174386873841286,0.08341288566589355,-0.04106323421001434,0.0,0.13279999792575836,0.05174386873841286,0.04938711225986481,0.0,0.0,0.0,0.0,0.0,0.0,0.0,0.0,0.0,0.0,0.0,-0.16854539513587952,0.0,0.0,-0.0,0.0,0.0,-0.16854539513587952,1.063198208808899,1.0579071044921875,13.557963371276855,0.07825856655836105,-0.07763330638408661,-0.007282807491719723,0.007603984326124191,0.11248504370450974,-0.13155192136764526,0.10890894383192062,-0.12085961550474167,-0.14695189893245697,0.08152329176664352,-2.2900057956576347e-05,13.64067268371582,6.934836387634277,6.705835819244385,1834.0,1815.0,0.0,0.0,0.07238595187664032,-0.061950746923685074,-0.0007460035267286003,0.010922268033027649,-0.010169679298996925,0.0786774754524231,0.5041444301605225,-0.4180201292037964,-0.16304658353328705,0.13854922354221344,-0.12143367528915405,-2.290001248184126e-05,1.0,0.3901594579219818,0.8718892931938171,0,0.30000001192092896,0,0,0,0,0,0.0,0.0,0,788135745,3816,761
827477062,5,428,2912,1516,49883331,49884,46600,266,4792,7090,-1172,838,-538,-986,27.078125,-0.05827333778142929,-0.10210469365119934,1.0530335903167725,30.616601943969727,-22.81771469116211,-7.202722549438477,-4.440776348114014,-4.5332932472229,4.399106979370117,1583,1500,1859,1500,2000,1503,1000,1000,1822,1587,1438,1837,1812,1511,1479,170,250,1975,1976,3,90.99,0.99,88.11,-1.89,1,1,1,1,1,1,1,0,1,1,0,0,stabilized_mix,-0.16785003244876862,0.2777722179889679,-0.5491411089897156,-0.05085548758506775,0.08300265669822693,-0.04312930256128311,0.0,0.13279999792575836,0.05085548758506775,0.04979734122753143,0.0,0.0,0.0,0.0,0.0,0.0,0.0,0.0,0.0,0.0,0.0,-0.17421168088912964,0.0,0.0,-0.0,0.0,0.0,-0.17421168088912964,1.0787485837936401,1.0534718036651611,13.564873695373535,0.07935813814401627,-0.07726322114467621,-0.012706863693892956,0.0010150629095733166,0.10729586333036423,-0.13940876722335815,0.09758865833282471,-0.13615626096725464,-0.146071195602417,0.06285560876131058,-2.9125483706593513e-05,13.648417472839355,6.969836235046387,6.678581237792969,1837.0,1812.0,0.0,0.0,0.08124861121177673,-0.05516210198402405,-0.0007461182540282607,0.0014593712985515594,-0.01771841198205948,0.07892104983329773,0.5343605279922485,-0.3982442319393158,-0.12571121752262115,0.15607057511806488,-0.1087009608745575,-2.9125454602763057e-05,1.0,0.4392508268356323,0.8723843097686768,0,0.30000001192092896,0,0,0,0,0,0.0,0.0,0,1651480544,3816,761
827477062,5,428,2914,1517,49891398,49892,46608,290,-1220,10582,2101,677,-219,-954,27.265625,-0.0976548045873642,-0.12391172349452972,1.0251753330230713,29.89049530029297,-22.131237030029297,-9.419047355651855,-4.6892900466918945,-4.702260971069336,4.341058731079102,1583,1500,1859,1500,2000,1503,1000,1000,1822,1579,1443,1834,1815,1511,1479,178,258,1975,1976,1,90.99,0.99,,,1,1,1,1,1,1,1,0,1,1,0,0,stabilized_mix,-0.23487409949302673,0.3484227657318115,-0.533763587474823,-0.051764898002147675,0.08462759852409363,-0.047459982335567474,0.0,0.13279999792575836,0.051764898002147675,0.048172399401664734,0.0,0.0,0.0,0.0,0.0,0.0,0.0,0.0,0.0,0.0,0.0,-0.17421168088912964,0.0,0.0,-0.0,0.0,0.0,-0.17421168088912964,1.1188677549362183,1.1120327711105347,13.556946754455566,0.08234433084726334,-0.08156747370958328,-0.018061410635709763,0.008756865747272968,0.10389474779367447,-0.1360795497894287,0.08965510874986649,-0.12442849576473236,-0.1440449208021164,0.0821966901421547,-2.1646847017109394e-05,13.648417472839355,6.932443141937256,6.7159743309021,1834.0,1815.0,0.0,0.0,0.07427231967449188,-0.05080827325582504,-3.565256338333711e-05,0.012585293501615524,-0.025224745273590088,0.07775503396987915,0.5216875672340393,-0.3862629532814026,-0.1643933802843094,0.14270012080669403,-0.1000429317355156,-2.1646879758918658e-05,1.0,0.4016205370426178,0.8723843097686768,0,0.30000001192092896,0,0,0,0,0,0.0,0.0,0,1094911773,3816,761
827477062,5,428,2915,1517,49895431,49896,46612,288,3864,6983,761,741,-579,-942,27.25,-0.025440728291869164,-0.08858294039964676,1.0401291847229004,31.67340087890625,-20.36955451965332,-7.194687843322754,-4.5606255531311035,-4.638288974761963,4.321998596191406,1583,1500,1859,1500,2000,1503,1000,1000,1822,1591,1452,1837,1813,1511,1479,182,262,1975,1976,1,90.99,0.99,,,1,1,1,1,1,1,1,0,1,1,0,0,stabilized_mix,-0.18081825971603394,0.2527422308921814,-0.60820472240448,-0.05096403881907463,0.08562777936458588,-0.049831490963697433,0.0,0.13279999792575836,0.05096403881907463,0.047172218561172485,0.0,0.0,0.0,0.0,0.0,0.0,0.0,0.0,0.0,0.0,0.0,-0.17789475619792938,0.0,0.0,-0.0,0.0,0.0,-0.17789475619792938,1.1040866374969482,1.0820839405059814,13.565649032592773,0.08120941370725632,-0.07933671027421951,-0.0229797326028347,-0.000355931231752038,0.09579581767320633,-0.14420005679130554,0.075899638235569,-0.14257261157035828,-0.1433795988559723,0.06278549879789352,-2.8207898139953613e-05,13.653451919555664,6.967765808105469,6.6856865882873535,1837.0,1813.0,0.0,0.0,0.08476344496011734,-0.04257172346115112,0.00012722123938146979,-0.0005134232342243195,-0.03202567994594574,0.07796972990036011,0.5528051257133484,-0.3555157780647278,-0.12557099759578705,0.1634383201599121,-0.08455013483762741,-2.8207934519741684e-05,1.0,0.4598172903060913,0.8727061152458191,0,0.30000001192092896,0,0,0,0,0,0.0,0.0,0,802490591,3816,761
827477062,5,428,2916,1517,49899465,49900,46616,296,-1855,7950,-1821,488,220,-1238,27.3125,-0.019418872892856598,0.006697099655866623,1.1059633493423462,34.01689147949219,-17.185382843017578,-0.5386362075805664,-4.701109409332275,-4.715080261230469,4.292776107788086,1583,1500,1859,1500,2000,1503,1000,1000,1822,1603,1472,1845,1805,1511,1479,186,266,1975,1976,1,90.99,0.99,,,1,1,1,1,1,1,1,0,1,1,0,0,stabilized_mix,-0.21438796818256378,0.2802913784980774,-0.6282193660736084,-0.05146905407309532,0.08648912608623505,-0.05214807763695717,0.0,0.13279999792575836,0.05146905407309532,0.046310871839523315,0.0,0.0,0.0,0.0,0.0,0.0,0.0,0.0,0.0,0.0,0.0,-0.17789475619792938,0.0,0.0,-0.0,0.0,0.0,-0.17789475619792938,1.1223249435424805,1.115220069885254,13.561468124389648,0.08257020264863968,-0.08177154511213303,-0.03703481703996658,-0.006638056598603725,0.08102167397737503,-0.15495231747627258,0.04417501389980316,-0.1615484058856964,-0.14235953986644745,0.004700487479567528,-4.8180692829191685e-05,13.653451919555664,7.067629814147949,6.585822582244873,1845.0,1805.0,0.0,0.0,0.09552139788866043,-0.023996397852897644,0.0014443638501688838,-0.009543821215629578,-0.051458507776260376,0.07814770936965942,0.5937067270278931,-0.2999415099620819,-0.009400974959135056,0.18501055240631104,-0.04909834638237953,-4.8180667363340035e-05,1.0,0.5205085873603821,0.8727061152458191,0,0.30000001192092896,0,0,0,0,0,0.0,0.0,0,2137638170,3816,761
827477062,5,428,2917,1517,49903498,49904,46620,282,350,10502,3396,581,-266,-964,27.203125,-0.11628799140453339,-0.17720359563827515,1.0127125978469849,30.334197998046875,-19.156593322753906,-10.987752914428711,-4.9225382804870605,-4.6362624168396,4.2628936767578125,1583,1500,1859,1500,2000,1503,1000,1000,1822,1579,1456,1832,1818,1511,1479,190,270,1975,1976,1,90.99,0.99,,,1,1,1,1,1,1,1,0,1,1,0,0,stabilized_mix,-0.17318423092365265,0.39055314660072327,-0.5454471111297607,-0.050434235483407974,0.08581830561161041,-0.05448000878095627,0.0,0.13279999792575836,0.050434235483407974,0.04698169231414795,0.0,0.0,0.0,0.0,0.0,0.0,0.0,0.0,0.0,0.0,0.0,-0.1816186159849167,0.0,0.0,-0.0,0.0,0.0,-0.1816186159849167,1.104016900062561,1.1681889295578003,13.563638687133789,0.08121629059314728,-0.08563268929719925,-0.026009339839220047,0.011724158190190792,0.08981091529130936,-0.13801142573356628,0.06833518296480179,-0.12333794683218002,-0.14131644368171692,0.09588623046875,-1.590058673173189e-05,13.658543586730957,6.908774375915527,6.7497687339782715,1832.0,1818.0,0.0,0.0,0.07340874522924423,-0.03852717950940132,0.0009106909856200218,0.01686406508088112,-0.036354340612888336,0.0764101967215538,0.5294316411018372,-0.33434563875198364,-0.1917724609375,0.14156121015548706,-0.0763627365231514,-1.5900573998806067e-05,1.0,0.3981197774410248,0.8730315566062927,0,0.30000001192092896,0,0,0,0,0,0.0,0.0,0,36659811,3816,761
827477062,5,428,2928,1527,49947856,49948,46664,300,-6915,9860,-665,138,557,-1340,27.34375,-0.11657553911209106,-0.005721256136894226,1.122802734375,36.23770523071289,-4.129497051239014,0.9493398666381836,-5.737468242645264,-3.4799418449401855,4.061376571655273,1583,1500,1859,1500,2000,1503,1000,1000,1822,1602,1523,1847,1805,1511,1479,234,314,1975,1976,1,90.99,0.99,,,1,1,1,1,1,1,1,0,1,1,0,0,stabilized_mix,-0.0046677254140377045,0.3899853825569153,-0.6552798748016357,-0.0385567732155323,0.09011915326118469,-0.08130647242069244,0.0,0.13279999792575836,0.0385567732155323,0.04268084466457367,0.0,0.0,0.0,0.0,0.0,0.0,0.0,0.0,0.0,0.0,0.0,-0.19593462347984314,0.0,0.0,-0.0,0.0,0.0,-0.19593462347984314,0.8302492499351501,1.3648855686187744,13.58449649810791,0.06104148179292679,-0.09995244443416595,-0.05437358468770981,0.005367729812860489,0.019406039267778397,-0.16485604643821716,-0.035424135625362396,-0.1594727337360382,-0.1342821717262268,-0.008284552954137325,-4.989840090274811e-05,13.678112983703613,7.088548183441162,6.589564323425293,1847.0,1805.0,0.0,0.0,0.09365379810333252,0.02180759236216545,0.005791496951133013,0.007730882614850998,-0.07568977028131485,0.07264205813407898,0.6324672698974609,-0.0720733180642128,0.01656910590827465,0.18298348784446716,0.03946060314774513,-4.9898353609023616e-05,1.0,0.5138774514198303,0.8742824196815491,0,0.30000001192092896,0,0,0,0,0,0.0,0.0,0,4112216835,3817,762
827477062,5,428,2929,1527,49951973,49952,46668,282,5525,10046,9581,-44,-655,-939,27.203125,-0.09425202012062073,-0.25510478019714355,1.0025962591171265,33.57376480102539,-2.6310653686523438,-11.415336608886719,-5.812191009521484,-3.0801239013671875,4.048460006713867,1583,1500,1859,1500,2000,1503,1000,1000,1822,1587,1519,1831,1821,1511,1479,238,318,1975,1976,1,90.99,0.99,,,1,1,1,1,1,1,1,0,1,1,0,0,stabilized_mix,0.1683763563632965,0.391357958316803,-0.5763745307922363,-0.03644641861319542,0.08947614580392838,-0.08380310982465744,0.0,0.13279999792575836,0.03644641861319542,0.04332385212182999,0.0,0.0,0.0,0.0,0.0,0.0,0.0,0.0,0.0,0.0,0.0,-0.198664590716362,0.0,0.0,-0.0,0.0,0.0,-0.198664590716362,0.7351585626602173,1.3835312128067017,13.591845512390137,0.05403555557131767,-0.10129483044147491,-0.04686427116394043,0.015444056130945683,0.012318574823439121,-0.15259623527526855,-0.029245078563690186,-0.1365852952003479,-0.13383130729198456,0.099617600440979,-1.1974829249083996e-05,13.681844711303711,6.900796413421631,6.78104829788208,1831.0,1821.0,0.0,0.0,0.08030621707439423,0.018098779022693634,0.00519980164244771,0.022249426692724228,-0.06548705697059631,0.07159405201673508,0.5859727263450623,-0.04592075198888779,-0.199235200881958,0.15694290399551392,0.03270021826028824,-1.1974797416769434e-05,1.0,0.4406268000602722,0.8745209574699402,0,0.30000001192092896,0,0,0,0,0,0.0,0.0,0,3748540488,3817,762
827477062,5,428,2930,1527,49955919,49956,46672,278,2147,7532,-8411,150,-194,-1241,27.171875,0.1818019300699234,0.026317063719034195,1.0716207027435303,38.128177642822266,-3.556849479675293,1.1762943267822266,-5.545408248901367,-2.9991116523742676,4.045459747314453,1583,1500,1859,1500,2000,1503,1000,1000,1822,1614,1519,1848,1805,1511,1479,242,322,1975,1976,1,90.99,0.99,,,1,1,1,1,1,1,1,0,1,1,0,0,stabilized_mix,0.1616288274526596,0.21859131753444672,-0.6598248481750488,-0.03585286810994148,0.09029541909694672,-0.08626256138086319,0.0,0.13279999792575836,0.03585286810994148,0.042504578828811646,0.0,0.0,0.0,0.0,0.0,0.0,0.0,0.0,0.0,0.0,0.0,-0.198664590716362,0.0,0.0,-0.0,0.0,0.0,-0.198664590716362,0.7158405780792236,1.3203285932540894,13.599161148071289,0.05259004607796669,-0.09665264189243317,-0.046185970306396484,-0.004749344661831856,0.016764717176556587,-0.17349427938461304,-0.030031243339180946,-0.1783766746520996,-0.133726567029953,-0.010265104472637177,-5.03971241414547e-05,13.681844711303711,7.092907905578613,6.588936805725098,1848.0,1805.0,0.0,0.0,0.10473540425300598,0.018780076876282692,0.0057173497043550014,-0.006843835115432739,-0.06411169469356537,0.07160541415214539,0.6654622554779053,-0.06207873299717903,0.020530208945274353,0.2045128345489502,0.03335772082209587,-5.039708412368782e-05,1.0,0.5741822719573975,0.8745209574699402,0,0.30000001192092896,0,0,0,0,0,0.0,0.0,0,1598700970,3817,762
827477062,5,428,2931,1527,49959953,49960,46676,284,-4926,9553,-71,12,455,-1346,27.21875,-0.12861217558383942,-0.01345759630203247,1.1222971677780151,36.741451263427734,0.7208483815193176,-1.069488525390625,-5.816502094268799,-3.1247615814208984,4.015214920043945,1585,1500,1858,1500,2000,1503,1000,1000,1821,1603,1541,1844,1808,1511,1479,246,326,1975,1976,1,90.99,0.99,,,1,1,1,1,1,1,1,0,1,1,0,0,stabilized_mix,0.02386051043868065,0.34205159544944763,-0.6520637273788452,-0.035033587366342545,0.09120359271764755,-0.08864137530326843,0.0,0.13600000739097595,0.035033587366342545,0.0447964146733284,0.0,0.0,0.0,0.0,0.0,0.0,0.0,0.0,0.0,0.0,0.0,-0.198664590716362,0.0,0.0,-0.0,0.0,0.0,-0.198664590716362,0.745802104473114,1.384495496749878,13.591167449951172,0.054819051176309586,-0.10136565566062927,-0.062266379594802856,0.004768519662320614,-0.003387937555089593,-0.1671234667301178,-0.06511621922254562,-0.16230100393295288,-0.1326708346605301,0.009333048015832901,-4.316819831728935e-05,13.681844711303711,7.056763648986816,6.625081539154053,1844.0,1808.0,0.0,0.0,0.09511547535657883,0.03892672806978226,0.007456090766936541,0.006869293749332428,-0.08664985746145248,0.07136110961437225,0.6412593126296997,0.012581177987158298,-0.018666096031665802,0.18625299632549286,0.072487972676754,-4.3168223783141e-05,1.0,0.5229166746139526,0.8745209574699402,0,0.30000001192092896,0,0,0,0,0,0.0,0.0,0,3656179937,3817,762
827477062,5,428,2932,1527,49963982,49964,46680,278,3579,9868,8597,-224,-637,-1028,27.171875,-0.05624772608280182,-0.18515600264072418,1.0082567930221558,35.11689376831055,2.1019725799560547,-10.868206024169922,-5.795953273773193,-2.6491405963897705,4.003589630126953,1585,1500,1858,1500,2000,1503,1000,1000,1821,1596,1537,1832,1821,1511,1479,250,330,1975,1976,1,90.99,0.99,,,1,1,1,1,1,1,1,0,1,1,0,0,stabilized_mix,0.22980009019374847,0.3173467516899109,-0.5824658870697021,-0.03272547572851181,0.09016910195350647,-0.0910927876830101,0.0,0.13600000739097595,0.03272547572851181,0.04583090543746948,0.0,0.0,0.0,0.0,0.0,0.0,0.0,0.0,0.0,0.0,0.0,-0.20176897943019867,0.0,0.0,-0.0,0.0,0.0,-0.20176897943019867,0.6325675845146179,1.3806267976760864,13.601571083068848,0.046473462134599686,-0.10105000436306,-0.053446002304553986,0.009073249064385891,-0.009859412908554077,-0.15961894392967224,-0.0580359548330307,-0.15074583888053894,-0.13226503133773804,0.09484298527240753,-1.3097771443426609e-05,13.686088562011719,6.908533096313477,6.777555465698242,1832.0,1821.0,0.0,0.0,0.08840729296207428,0.03480124846100807,0.006827398668974638,0.013077177107334137,-0.07454577833414078,0.07032330334186554,0.6129054427146912,0.03668634220957756,-0.18968597054481506,0.1731494516134262,0.06475397944450378,-1.3097715964249801e-05,1.0,0.4859769344329834,0.874792218208313,0,0.30000001192092896,0,0,0,0,0,0.0,0.0,0,2956281056,3817,762
827477062,5,428,2933,1527,49968019,49968,46684,290,-785,7381,-8336,-17,-105,-1267,27.265625,0.173644557595253,0.030954116955399513,1.0456340312957764,38.89475631713867,0.9513311386108398,1.373525857925415,-5.599681377410889,-2.519444465637207,3.9989795684814453,1585,1500,1859,1500,2000,1503,1000,1000,1822,1617,1536,1848,1806,1511,1479,254,334,1975,1976,0,,,,,1,1,1,1,1,1,1,0,1,1,0,0,stabilized_mix,0.24109461903572083,0.19296565651893616,-0.6456514000892639,-0.03177053481340408,0.09079781174659729,-0.09361474961042404,0.0,0.13600000739097595,0.03177053481340408,0.04520219564437866,0.0,0.0,0.0,0.0,0.0,0.0,0.0,0.0,0.0,0.0,0.0,-0.20176897943019867,0.0,0.0,-0.0,0.0,0.0,-0.20176897943019867,0.6016189455986023,1.334161639213562,13.607610702514648,0.04418317228555679,-0.09763811528682709,-0.05112826079130173,-0.006678802892565727,-0.004485691897571087,-0.17696493864059448,-0.05636535584926605,-0.18373361229896545,-0.13210411369800568,-0.011986274272203445,-5.043158307671547e-05,13.686088562011719,7.0952019691467285,6.590886116027832,1848.0,1806.0,0.0,0.0,0.10769596695899963,0.03390128165483475,0.0074077993631362915,-0.009624432772397995,-0.07092130929231644,0.0699387788772583,0.6788415312767029,0.01660386100411415,0.02397254854440689,0.21065300703048706,0.06254246085882187,-5.043163400841877e-05,1.0,0.5912377834320068,0.874792218208313,0,0.30000001192092896,0,0,0,0,0,0.0,0.0,0,3562421920,3817,762
827477062,5,428,2934,1527,49971041,49972,46687,280,-2533,13970,5216,-290,-63,-1156,27.1875,-0.13112038373947144,-0.10345501452684402,1.1211961507797241,35.8174934387207,5.9453535079956055,-7.621460914611816,-5.785439968109131,-2.4298691749572754,3.9741249084472656,1585,1500,1859,1500,2000,1503,1000,1000,1822,1600,1555,1836,1817,1511,1479,258,338,1975,1976,0,,,,,1,1,1,1,1,1,1,0,1,1,0,0,stabilized_mix,0.2214367538690567,0.28900569677352905,-0.6165496706962585,-0.03069763071835041,0.09121996909379959,-0.09534396976232529,0.0,0.13600000739097595,0.03069763071835041,0.04478003829717636,0.0,0.0,0.0,0.0,0.0,0.0,0.0,0.0,0.0,0.0,0.0,-0.20176897943019867,0.0,0.0,-0.0,0.0,0.0,-0.20176897943019867,0.5802423357963562,1.3783648014068604,13.604133605957031,0.04262607917189598,-0.10088387131690979,-0.0626930221915245,0.005895035341382027,-0.027917228639125824,-0.16283312439918518,-0.08689873665571213,-0.15747618675231934,-0.13123652338981628,0.06650979071855545,-2.2654305212199688e-05,13.686088562011719,6.956315517425537,6.729772567749023,1836.0,1817.0,0.0,0.0,0.09217667579650879,0.05144859477877617,0.008497009053826332,0.008496087044477463,-0.0873374193906784,0.06950430572032928,0.6251331567764282,0.10376599431037903,-0.1330195814371109,0.18081706762313843,0.0967879369854927,-2.2654356143902987e-05,1.0,0.5074975490570068,0.874792218208313,0,0.30000001192092896,0,0,0,0,0,0.0,0.0,0,3471099169,3817,762
827477062,5,428,2935,1527,49975107,49976,46691,292,4649,5992,-61,-248,-596,-1154,27.28125,0.13174420595169067,-0.10538198053836823,0.9851819276809692,37.75611114501953,4.862462997436523,-5.0012969970703125,-5.626046180725098,-2.2203354835510254,3.9707279205322266,1585,1500,1859,1500,2000,1503,1000,1000,1822,1612,1548,1840,1813,1511,1479,262,342,1975,1976,0,,,,,1,1,1,1,1,1,1,0,1,1,0,0,stabilized_mix,0.318644642829895,0.20160290598869324,-0.5888500213623047,-0.02843429706990719,0.09002110362052917,-0.09784078598022461,0.0,0.13600000739097595,0.02843429706990719,0.04597890377044678,0.0,0.0,0.0,0.0,0.0,0.0,0.0,0.0,0.0,0.0,0.0,-0.20511683821678162,0.0,0.0,-0.0,0.0,0.0,-0.20511683821678162,0.5304101705551147,1.3411608934402466,13.614487648010254,0.03893955424427986,-0.09811907261610031,-0.055483318865299225,-0.0032249523792415857,-0.022893447428941727,-0.17167270183563232,-0.07579896599054337,-0.17527753114700317,-0.13111793994903564,0.04364455118775368,-3.0615716241300106e-05,13.690665245056152,6.998411655426025,6.692254066467285,1840.0,1813.0,0.0,0.0,0.10266420990228653,0.045044250786304474,0.00838245078921318,-0.004650548100471497,-0.07710055261850357,0.0689055323600769,0.658968448638916,0.0848659873008728,-0.08728910237550735,0.20112720131874084,0.0842268094420433,-3.061568713746965e-05,1.0,0.5643131136894226,0.8750847578048706,0,0.30000001192092896,0,0,0,0,0,0.0,0.0,0,843081469,3817,762
827477062,5,428,2945,1536,50015394,50016,46731,278,1670,7575,135,-376,128,-1255,27.171875,-0.015766566619277,-0.06580322980880737,1.042860984802246,38.474464416503906,13.59762954711914,2.8610918521881104,-5.751241207122803,-0.5691490173339844,3.964202880859375,1586,1500,1859,1500,2000,1503,1000,1000,1822,1613,1575,1850,1805,1511,1479,302,382,1975,1976,0,,,,,1,1,1,1,1,1,1,0,1,1,0,0,stabilized_mix,0.4231596291065216,0.17611488699913025,-0.41586533188819885,-0.0074823759496212006,0.08785644173622131,-0.11788388341665268,0.0,0.13760000467300415,0.0074823759496212006,0.04974356293678284,0.0,0.0,0.0,0.0,0.0,0.0,0.0,0.0,0.0,0.0,0.0,-0.21687071025371552,0.0,0.0,-0.0,0.0,0.0,-0.21687071025371552,0.136153906583786,1.3734785318374634,13.637063026428223,0.00998377613723278,-0.10037313401699066,-0.052233196794986725,-0.0038505280390381813,-0.06401368230581284,-0.17476463317871094,-0.11797860264778137,-0.17814895510673523,-0.13089017570018768,-0.02496773563325405,-5.4550240747630596e-05,13.706731796264648,7.12611722946167,6.580615043640137,1850.0,1805.0,0.0,0.0,0.10422179847955704,0.06919803470373154,0.01097557507455349,-0.005556806921958923,-0.07263470441102982,0.06587064266204834,0.6715060472488403,0.23732340335845947,0.0499354712665081,0.20462550222873688,0.13100318610668182,-5.4550266213482246e-05,1.0,0.5734555125236511,0.8761116862297058,0,0.30000001192092896,0,0,0,0,0,0.0,0.0,0,154703168,3818,763
827477062,5,428,2946,1536,50019423,50020,46735,272,-1136,6067,797,-646,250,-1244,27.125,-0.011105934157967567,-0.01928504928946495,1.0080662965774536,37.646690368652344,15.400779724121094,3.4488320350646973,-5.870818138122559,-0.521883487701416,3.9694175720214844,1586,1500,1859,1500,2000,1503,1000,1000,1822,1608,1584,1851,1804,1511,1479,306,386,1975,1976,0,,,,,1,1,1,1,1,1,1,0,1,1,0,0,stabilized_mix,0.383513867855072,0.21695880591869354,-0.3685087561607361,-0.0056821731850504875,0.08832628279924393,-0.11927887052297592,0.0,0.13760000467300415,0.0056821731850504875,0.04927372187376022,0.0,0.0,0.0,0.0,0.0,0.0,0.0,0.0,0.0,0.0,0.0,-0.21687071025371552,0.0,0.0,-0.0,0.0,0.0,-0.21687071025371552,0.12484721094369888,1.401947259902954,13.634275436401367,0.009156608022749424,-0.1024608388543129,-0.0573672354221344,0.0011085397563874722,-0.07240263372659683,-0.17096799612045288,-0.13185149431228638,-0.16912484169006348,-0.13107219338417053,-0.030096737667918205,-5.640916060656309e-05,13.706731796264648,7.135411739349365,6.571320056915283,1851.0,1804.0,0.0,0.0,0.09888847172260284,0.07720469683408737,0.011395188979804516,0.0015994608402252197,-0.079892098903656,0.06612910330295563,0.6570587158203125,0.26879429817199707,0.06019347533583641,0.19436149299144745,0.14655520021915436,-5.640912422677502e-05,1.0,0.5446910262107849,0.8761116862297058,0,0.30000001192092896,0,0,0,0,0,0.0,0.0,0,3961452608,3818,763
827477062,5,428,2947,1536,50023457,50024,46739,280,1953,10846,-50,-451,-271,-1148,27.1875,-0.008113706484436989,-0.18368737399578094,1.0097163915634155,35.840415954589844,13.32773494720459,-3.409088611602783,-5.9952263832092285,-0.42201119661331177,3.9705162048339844,1586,1500,1859,1500,2000,1503,1000,1000,1822,1598,1568,1842,1812,1511,1479,310,390,1975,1976,0,,,,,1,1,1,1,1,1,1,0,1,1,0,0,stabilized_mix,0.3749666213989258,0.2807624936103821,-0.34479230642318726,-0.0030519235879182816,0.08714308589696884,-0.12065180391073227,0.0,0.13760000467300415,0.0030519235879182816,0.05045691877603531,0.0,0.0,0.0,0.0,0.0,0.0,0.0,0.0,0.0,0.0,0.0,-0.22025299072265625,0.0,0.0,-0.0,0.0,0.0,-0.22025299072265625,0.10098987072706223,1.4320520162582397,13.635993003845215,0.007405989803373814,-0.10463359951972961,-0.045766524970531464,0.008689753711223602,-0.06247010827064514,-0.16263419389724731,-0.10669666528701782,-0.1544489860534668,-0.1311105489730835,0.029749909415841103,-3.547617234289646e-05,13.711356163024902,7.033059120178223,6.67829704284668,1842.0,1812.0,0.0,0.0,0.09040205180644989,0.06283155828714371,0.009435122832655907,0.012545831501483917,-0.06392310559749603,0.06630559265613556,0.6255332827568054,0.23261284828186035,-0.059499818831682205,0.1776987910270691,0.1190371960401535,-3.547622327459976e-05,1.0,0.4978264570236206,0.876407265663147,0,0.30000001192092896,0,0,0,0,0,0.0,0.0,0,2757408893,3818,763
827477062,5,428,2948,1536,50027488,50028,46743,282,1755,8142,-1340,-462,-64,-1214,27.203125,0.0850001722574234,-0.053915828466415405,1.0574434995651245,37.96993637084961,16.073272705078125,1.8389887809753418,-5.798863887786865,-0.2003665566444397,3.977560043334961,1586,1500,1859,1500,2000,1503,1000,1000,1822,1611,1582,1849,1806,1511,1479,314,394,1975,1976,0,,,,,1,1,1,1,1,1,1,0,1,1,0,0,stabilized_mix,0.4330999255180359,0.15580710768699646,-0.3863295912742615,-0.0013181774411350489,0.08745098859071732,-0.12202266603708267,0.0,0.13760000467300415,0.0013181774411350489,0.050149016082286835,0.0,0.0,0.0,0.0,0.0,0.0,0.0,0.0,0.0,0.0,0.0,-0.22025299072265625,0.0,0.0,-0.0,0.0,0.0,-0.22025299072265625,0.04794928431510925,1.3853399753570557,13.641107559204102,0.003515043528750539,-0.1012086495757103,-0.05216608941555023,-0.001734115881845355,-0.07560481876134872,-0.17239174246788025,-0.128999263048172,-0.17375314235687256,-0.13135641813278198,-0.01604820415377617,-5.1591661758720875e-05,13.711356163024902,7.113636493682861,6.597719669342041,1849.0,1806.0,0.0,0.0,0.1016305461525917,0.07553810626268387,0.011439349502325058,-0.0025055669248104095,-0.0726223886013031,0.06555647403001785,0.6627004146575928,0.28053152561187744,0.03209640830755234,0.19969582557678223,0.14333471655845642,-5.159161810297519e-05,1.0,0.5594515800476074,0.876407265663147,0,0.30000001192092896,0,0,0,0,0,0.0,0.0,0,653774467,3818,763
827477062,5,428,2950,1537,50035550,50036,46751,312,2970,11855,4808,-539,-329,-1059,27.4375,-0.10965773463249207,-0.186212420463562,1.0093669891357422,34.51604461669922,16.346696853637695,-5.303558349609375,-5.953011989593506,-0.3801649808883667,3.971364974975586,1587,1500,1859,1500,2000,1503,1000,1000,1822,1593,1582,1840,1815,1511,1479,322,402,1975,1976,0,,,,,1,1,1,1,1,1,1,0,1,1,0,0,stabilized_mix,0.24418309330940247,0.23057520389556885,-0.29438450932502747,0.0032869158312678337,0.08776485919952393,-0.1244577020406723,0.0,0.13920000195503235,-0.0032869158312678337,0.05143514275550842,0.0,0.0,0.0,0.0,0.0,0.0,0.0,0.0,0.0,0.0,0.0,-0.22511158883571625,0.0,0.0,-0.0,0.0,0.0,-0.22511158883571625,0.09102004021406174,1.422701120376587,13.643720626831055,0.006671104580163956,-0.10389737784862518,-0.05432084947824478,0.011299917474389076,-0.07651322335004807,-0.1564982831478119,-0.1285654604434967,-0.14623978734016418,-0.13114017248153687,0.04628227651119232,-2.970022615045309e-05,13.717998504638672,7.007500648498535,6.710498332977295,1840.0,1815.0,0.0,0.0,0.08549848198890686,0.07547059655189514,0.010205468162894249,0.01632237434387207,-0.07599440217018127,0.06647051870822906,0.6024186015129089,0.28530368208885193,-0.09256455302238464,0.16840288043022156,0.14356224238872528,-2.970026253024116e-05,1.0,0.47155529260635376,0.8768318295478821,0,0.30000001192092896,0,0,0,0,0,0.0,0.0,0,2542173519,3818,763
827477062,5,428,2951,1537,50039583,50040,46755,286,2949,8897,-7296,-490,-158,-1217,27.234375,0.1719132661819458,-0.02930353954434395,1.0539801120758057,37.705509185791016,16.896631240844727,1.8824403285980225,-5.724460601806641,-0.21620142459869385,3.9775028228759766,1587,1500,1859,1500,2000,1503,1000,1000,1822,1610,1587,1850,1806,1511,1479,326,406,1975,1976,0,,,,,1,1,1,1,1,1,1,0,1,1,0,0,stabilized_mix,0.3041267395019531,0.08954321593046188,-0.3492557108402252,0.004340918269008398,0.08789420872926712,-0.12570054829120636,0.0,0.13920000195503235,-0.004340918269008398,0.05130579322576523,0.0,0.0,0.0,0.0,0.0,0.0,0.0,0.0,0.0,0.0,0.0,-0.22511158883571625,0.0,0.0,-0.0,0.0,0.0,-0.22511158883571625,0.05176373943686485,1.3682857751846313,13.649491310119629,0.003792338538914919,-0.0999099612236023,-0.05526521056890488,-0.002448375103995204,-0.07943736761808395,-0.17109504342079163,-0.13599324226379395,-0.17315155267715454,-0.131354421377182,-0.01642739027738571,-5.172367673367262e-05,13.717998504638672,7.117617607116699,6.600380897521973,1850.0,1806.0,0.0,0.0,0.10127291828393936,0.07956384122371674,0.011819926090538502,-0.0035379044711589813,-0.07697927951812744,0.0655391663312912,0.658085286617279,0.29490184783935547,0.03285478055477142,0.1991070806980133,0.15114909410476685,-5.1723633077926934e-05,1.0,0.557532012462616,0.8768318295478821,0,0.30000001192092896,0,0,0,0,0,0.0,0.0,0,610135758,3818,763
827477062,5,428,2952,1537,50043617,50044,46759,280,-3017,6185,1363,-667,443,-1314,27.1875,-0.00162486732006073,-0.005704775452613831,1.0492138862609863,36.877899169921875,18.178665161132812,3.0032122135162354,-5.90962553024292,-0.18620222806930542,3.968881607055664,1587,1500,1859,1500,2000,1503,1000,1000,1822,1603,1593,1852,1805,1511,1479,330,410,1975,1976,0,,,,,1,1,1,1,1,1,1,0,1,1,0,0,stabilized_mix,0.26073357462882996,0.17979440093040466,-0.325920432806015,0.006145813036710024,0.0866512730717659,-0.1267862766981125,0.0,0.13920000195503235,-0.006145813036710024,0.05254872888326645,0.0,0.0,0.0,0.0,0.0,0.0,0.0,0.0,0.0,0.0,0.0,-0.2322596311569214,0.0,0.0,-0.0,0.0,0.0,-0.2322596311569214,0.044613003730773926,1.4133988618850708,13.654741287231445,0.0032672053202986717,-0.10314188152551651,-0.059097759425640106,0.004020703956484795,-0.08526170253753662,-0.16718339920043945,-0.14627334475517273,-0.16236811876296997,-0.13105349242687225,-0.026207970455288887,-5.504151340574026e-05,13.72776985168457,7.139092445373535,6.588677406311035,1852.0,1805.0,0.0,0.0,0.09494814276695251,0.08555719256401062,0.011881185695528984,0.005813911557197571,-0.08252143114805222,0.06573428958654404,0.6436407566070557,0.31727755069732666,0.052415940910577774,0.18695512413978577,0.16290917992591858,-5.5041509767761454e-05,1.0,0.5231319665908813,0.8774564266204834,0,0.30000001192092896,0,0,0,0,0,0.0,0.0,0,1430028949,3818,763
827477062,5,428,2953,1537,50047653,50048,46763,276,4162,10157,7141,-579,-384,-994,27.15625,-0.03722754120826721,-0.22384417057037354,0.9579007625579834,33.79442596435547,17.24974822998047,-6.965964317321777,-6.001667499542236,0.31849050521850586,3.963804244995117,1587,1500,1858,1500,2000,1503,1000,1000,1821,1590,1576,1838,1818,1511,1479,334,414,1975,1976,0,,,,,1,1,1,1,1,1,1,0,1,1,0,0,stabilized_mix,0.47380900382995605,0.2228357493877411,-0.24694617092609406,0.008042057044804096,0.0866834968328476,-0.1278885453939438,0.0,0.13920000195503235,-0.008042057044804096,0.05251650512218475,0.0,0.0,0.0,0.0,0.0,0.0,0.0,0.0,0.0,0.0,0.0,-0.2322596311569214,0.0,0.0,-0.0,0.0,0.0,-0.2322596311569214,-0.07630827277898788,1.435317873954773,13.652315139770508,-0.00558934360742569,-0.1047472357749939,-0.04193156957626343,0.013958015479147434,-0.08062619715929031,-0.1530899703502655,-0.1195053905248642,-0.14059999585151672,-0.13087625801563263,0.06078950688242912,-2.4530338123440742e-05,13.72776985168457,6.986536502838135,6.741232872009277,1838.0,1818.0,0.0,0.0,0.08226779103279114,0.07026905566453934,0.00953243114054203,0.02017775923013687,-0.058763131499290466,0.06530876457691193,0.5898240208625793,0.3010649085044861,-0.12157901376485825,0.16206912696361542,0.13369785249233246,-2.4530359951313585e-05,1.0,0.4534967541694641,0.8774564266204834,0,0.30000001192092896,0,0,0,0,0,0.0,0.0,0,416386348,3818,763
827477062,5,428,2964,1547,50091007,50092,46806,276,2049,9277,6684,-795,-560,-841,27.15625,-0.00270862877368927,-0.2309092879295349,1.0003072023391724,29.163785934448242,22.004817962646484,-12.682243347167969,-6.283200740814209,3.419520378112793,3.8892650604248047,1587,1500,1859,1500,2000,1503,1000,1000,1822,1566,1556,1835,1830,1511,1479,378,458,1975,1976,0,,,,,1,1,1,1,1,1,1,0,1,1,0,0,stabilized_mix,0.9865220189094543,0.2713329493999481,-0.311185359954834,0.0441739521920681,0.08431482315063477,-0.14025823771953583,0.0,0.13920000195503235,-0.0441739521920681,0.05488517880439758,0.0,0.0,0.0,0.0,0.0,0.0,0.0,0.0,0.0,0.0,0.0,-0.31201669573783875,0.0,0.0,-0.0,0.0,0.0,-0.31201669573783875,-0.8253160119056702,1.5116426944732666,13.729192733764648,-0.06004169583320618,-0.10946651548147202,0.00913077313452959,0.031227264553308487,-0.10163932293653488,-0.13093352317810059,-0.08742126077413559,-0.10321644693613052,-0.1282743513584137,0.1106734499335289,-6.1603495851159096e-06,13.836796760559082,6.94920015335083,6.88759708404541,1835.0,1830.0,0.0,0.0,0.06071106716990471,0.05186201259493828,0.006894354242831469,0.045492202043533325,0.012958472594618797,0.059952251613140106,0.5090040564537048,0.3840565085411072,-0.2213468998670578,0.12010418623685837,0.0991436243057251,-6.160315479064593e-06,1.0,0.3334237039089203,0.8844252228736877,0,0.30000001192092896,0,0,0,0,0,0.0,0.0,0,617595458,3819,764
827477062,5,428,2965,1547,50096050,50096,46811,306,8817,5794,4324,-746,-923,-847,27.390625,0.13750098645687103,-0.20917803049087524,0.9602108597755432,30.639856338500977,19.996198654174805,-10.670825958251953,-6.2843403816223145,3.509632110595703,3.8657989501953125,1587,1500,1859,1500,2000,1503,1000,1000,1822,1572,1545,1836,1825,1511,1479,382,462,1975,1976,0,,,,,1,1,1,1,1,1,1,0,1,1,0,0,stabilized_mix,0.9809545278549194,0.18567077815532684,-0.3419955372810364,0.04817027226090431,0.08290992677211761,-0.14184965193271637,0.0,0.13920000195503235,-0.04817027226090431,0.056290075182914734,0.0,0.0,0.0,0.0,0.0,0.0,0.0,0.0,0.0,0.0,0.0,-0.27278798818588257,0.0,0.0,0.0,0.0,0.0,-0.27278798818588257,-0.8437552452087402,1.5059128999710083,13.674653053283691,-0.061624009162187576,-0.10947589576244354,0.01714102178812027,0.027401909232139587,-0.09279737621545792,-0.13814082741737366,-0.07111793011426926,-0.11338385194540024,-0.1274552345275879,0.0931205227971077,-1.2017204426229e-05,13.783171653747559,6.951672077178955,6.8314995765686035,1836.0,1825.0,0.0,0.0,0.0667123794555664,0.042302362620830536,0.006568740122020245,0.039766039699316025,0.02420892007648945,0.05886467546224594,0.5347663760185242,0.3489995002746582,-0.1862410455942154,0.13137444853782654,0.08028820902109146,-1.2017148947052192e-05,1.0,0.3661302924156189,0.8809975981712341,0,0.30000001192092896,0,0,0,0,0,0.0,0.0,0,2765312222,3819,764
827477062,5,428,2966,1547,50099102,50100,46814,268,-6350,11658,-4461,-549,625,-1211,27.09375,-0.04758109152317047,0.00907599925994873,1.1000748872756958,31.880260467529297,19.045639038085938,1.2942252159118652,-6.429678916931152,3.010342597961426,3.8423423767089844,1587,1500,1858,1500,2000,1503,1000,1000,1821,1573,1553,1851,1810,1511,1479,386,466,1975,1976,0,,,,,1,1,1,1,1,1,1,0,1,1,0,0,stabilized_mix,0.6647449135780334,0.2274932861328125,-0.36508551239967346,0.05043163150548935,0.08335018903017044,-0.14275267720222473,0.0,0.13920000195503235,-0.05043163150548935,0.05584981292486191,0.0,0.0,0.0,0.0,0.0,0.0,0.0,0.0,0.0,0.0,0.0,-0.27278798818588257,0.0,0.0,0.0,0.0,0.0,-0.27278798818588257,-0.723840057849884,1.5413603782653809,13.677576065063477,-0.05287233740091324,-0.11206355690956116,0.006302499212324619,0.028890345245599747,-0.08838478475809097,-0.14377105236053467,-0.08262277394533157,-0.11431381851434708,-0.12663644552230835,-0.011294245719909668,-4.8275687731802464e-05,13.783171653747559,7.132964134216309,6.65020751953125,1851.0,1810.0,0.0,0.0,0.06719592958688736,0.048987504094839096,0.007038699928671122,0.04192638397216797,0.008900569751858711,0.05933751165866852,0.5564154982566833,0.3324091136455536,0.022588491439819336,0.13244681060314178,0.09323888272047043,-4.827573866350576e-05,1.0,0.369118869304657,0.8809975981712341,0,0.30000001192092896,0,0,0,0,0,0.0,0.0,0,1396062060,3819,764
827477062,5,428,2967,1547,50103167,50104,46818,266,4201,8273,7154,-779,-673,-790,27.078125,0.05044035613536835,-0.24549318850040436,0.9837867617607117,27.99390983581543,20.876819610595703,-12.95010757446289,-6.3557281494140625,3.573479175567627,3.8304214477539062,1587,1500,1858,1500,2000,1503,1000,1000,1821,1559,1549,1831,1827,1511,1479,390,470,1975,1976,0,,,,,1,1,1,1,1,1,1,0,1,1,0,0,stabilized_mix,0.8913760781288147,0.25464773178100586,-0.335148423910141,0.05286773294210434,0.08171012997627258,-0.14411215484142303,0.0,0.13920000195503235,-0.05286773294210434,0.057489871978759766,0.0,0.0,0.0,0.0,0.0,0.0,0.0,0.0,0.0,0.0,0.0,-0.24728934466838837,0.0,0.0,0.0,0.0,0.0,-0.24728934466838837,-0.8569126129150391,1.5189934968948364,13.637248039245605,-0.06275367736816406,-0.11071181297302246,0.01564539223909378,0.03643561154603958,-0.0969415083527565,-0.1264658272266388,-0.076266348361969,-0.0934397354722023,-0.12622031569480896,0.11301100999116898,-4.623201675713062e-06,13.748315811157227,6.897274017333984,6.851041793823242,1831.0,1827.0,0.0,0.0,0.05485152825713158,0.04520956426858902,0.0062247589230537415,0.05273933708667755,0.02208552695810795,0.05885419249534607,0.488585889339447,0.3643692433834076,-0.22602201998233795,0.10806701332330704,0.08604901283979416,-4.6232567001425195e-06,1.0,0.30193784832954407,0.8787696957588196,0,0.30000001192092896,0,0,0,0,0,0.0,0.0,0,1627568767,3819,764
827477062,5,428,2968,1547,50107173,50108,46822,284,6600,5314,-6156,-620,-401,-969,27.21875,0.35854780673980713,-0.04431567341089249,1.0230597257614136,31.626752853393555,18.794292449951172,-1.4629850387573242,-6.132844924926758,3.814023971557617,3.8202857971191406,1587,1500,1858,1500,2000,1503,1000,1000,1821,1577,1540,1846,1812,1511,1479,394,474,1975,1976,0,,,,,1,1,1,1,1,1,1,0,1,1,0,0,stabilized_mix,1.016326904296875,0.09478110074996948,-0.398529052734375,0.05607444792985916,0.08198296278715134,-0.14546184241771698,0.0,0.13920000195503235,-0.05607444792985916,0.05721703916788101,0.0,0.0,0.0,0.0,0.0,0.0,0.0,0.0,0.0,0.0,0.0,-0.24728934466838837,0.0,0.0,0.0,0.0,0.0,-0.24728934466838837,-0.9145120978355408,1.4655354022979736,13.639357566833496,-0.06694929301738739,-0.1068003699183464,0.024674300104379654,0.022864684462547302,-0.08749795705080032,-0.14298486709594727,-0.06212256848812103,-0.12029155343770981,-0.12586651742458344,0.012766952626407146,-3.958481829613447e-05,13.748315811157227,7.072082042694092,6.676233768463135,1846.0,1812.0,0.0,0.0,0.07077105343341827,0.0370306558907032,0.0063677821308374405,0.03310013189911842,0.03472789376974106,0.057319607585668564,0.5519909858703613,0.3280222713947296,-0.025533905252814293,0.1389894336462021,0.06991048902273178,-3.958484739996493e-05,1.0,0.3883346617221832,0.8787696957588196,0,0.30000001192092896,0,0,0,0,0,0.0,0.0,0,4292461474,3819,764
827477062,5,428,2969,1547,50111219,50112,46826,288,-6869,12384,-4536,-565,589,-1138,27.25,0.024611055850982666,0.013444557785987854,1.0985006093978882,30.057994842529297,20.138477325439453,-0.5284061431884766,-6.443155765533447,3.907655715942383,3.7847366333007812,1587,1500,1858,1500,2000,1503,1000,1000,1821,1565,1545,1847,1811,1511,1479,398,478,1975,1976,0,,,,,1,1,1,1,1,1,1,0,1,1,0,0,stabilized_mix,0.8863852620124817,0.23206478357315063,-0.37401968240737915,0.05993422865867615,0.08243068307638168,-0.1467566341161728,0.0,0.13920000195503235,-0.05993422865867615,0.056769318878650665,0.0,0.0,0.0,0.0,0.0,0.0,0.0,0.0,0.0,0.0,0.0,-0.24728934466838837,0.0,0.0,0.0,0.0,0.0,-0.24728934466838837,-0.9369284510612488,1.53921377658844,13.629716873168945,-0.06863361597061157,-0.11219173669815063,0.021819662302732468,0.03406033664941788,-0.0935787484049797,-0.1358470618724823,-0.07147026807069778,-0.10169205814599991,-0.12462562322616577,0.0046112132258713245,-4.200509283691645e-05,13.748315811157227,7.084183216094971,6.664132595062256,1847.0,1811.0,0.0,0.0,0.05977238714694977,0.0424262098968029,0.006281479261815548,0.04930377006530762,0.030774321407079697,0.05718974769115448,0.5246109962463379,0.35148271918296814,-0.009222426451742649,0.11757984757423401,0.08058030158281326,-4.200504190521315e-05,1.0,0.32851657271385193,0.8787696957588196,0,0.30000001192092896,0,0,0,0,0,0.0,0.0,0,4169191271,3819,764
827477062,5,428,2970,1547,50115201,50116,46830,288,3467,7695,7551,-777,-550,-746,27.25,0.045259833335876465,-0.22925187647342682,0.9671235084533691,26.810659408569336,20.836000442504883,-10.472631454467773,-6.367747783660889,4.468422889709473,3.7759151458740234,1587,1500,1858,1500,2000,1503,1000,1000,1821,1553,1538,1833,1823,1511,1479,402,482,1975,1976,0,,,,,1,1,1,1,1,1,1,0,1,1,0,0,stabilized_mix,1.0826356410980225,0.24922245740890503,-0.3424646258354187,0.06285037100315094,0.08083205670118332,-0.14815013110637665,0.0,0.13920000195503235,-0.06285037100315094,0.05836794525384903,0.0,0.0,0.0,0.0,0.0,0.0,0.0,0.0,0.0,0.0,0.0,-0.2280551642179489,0.0,0.0,0.0,0.0,0.0,-0.2280551642179489,-1.069077968597412,1.5172767639160156,13.595911979675293,-0.07847084850072861,-0.11079895496368408,0.033564187586307526,0.04050065577030182,-0.09685283154249191,-0.1213269904255867,-0.05933983623981476,-0.0835503563284874,-0.12431769073009491,0.0913909524679184,-1.1524301953613758e-05,13.72202205657959,6.918632507324219,6.803389549255371,1833.0,1823.0,0.0,0.0,0.04909515008330345,0.035280950367450714,0.005476461257785559,0.0585072785615921,0.047322846949100494,0.056646961718797684,0.4679342806339264,0.36365681886672974,-0.1827819049358368,0.09647322446107864,0.06690668314695358,-1.1524358342285268e-05,1.0,0.2700614333152771,0.8770890235900879,0,0.30000001192092896,0,0,0,0,0,0.0,0.0,0,3461621064,3819,764
827477062,5,428,2971,1547,50119228,50120,46834,300,5360,5324,-6197,-528,-291,-929,27.34375,0.3199903964996338,-0.03644496202468872,1.0235545635223389,30.163570404052734,16.657428741455078,1.3497004508972168,-6.161567687988281,4.531139850616455,3.7760066986083984,1587,1500,1858,1500,2000,1503,1000,1000,1821,1569,1521,1848,1808,1511,1479,406,486,1975,1976,0,,,,,1,1,1,1,1,1,1,0,1,1,0,0,stabilized_mix,1.0908218622207642,0.09725160896778107,-0.3995018005371094,0.0665440484881401,0.08110757172107697,-0.14950037002563477,0.0,0.13920000195503235,-0.0665440484881401,0.05809243023395538,0.0,0.0,0.0,0.0,0.0,0.0,0.0,0.0,0.0,0.0,0.0,-0.2280551642179489,0.0,0.0,0.0,0.0,0.0,-0.2280551642179489,-1.0840520858764648,1.4682154655456543,13.600112915039062,-0.07954088598489761,-0.10720223188400269,0.04573536664247513,0.028327088803052902,-0.07756543904542923,-0.13659009337425232,-0.03233221173286438,-0.10775126516819,-0.1243208795785904,-0.011778358370065689,-4.763470496982336e-05,13.72202205657959,7.099184513092041,6.622837543487549,1848.0,1808.0,0.0,0.0,0.06352020055055618,0.019630035385489464,0.004991808440536261,0.04092638939619064,0.06432430446147919,0.05546838790178299,0.5264536142349243,0.2907269597053528,0.023556716740131378,0.12432163208723068,0.03638678416609764,-4.763473043567501e-05,1.0,0.348018616437912,0.8770890235900879,0,0.30000001192092896,0,0,0,0,0,0.0,0.0,0,1825698111,3819,764
827477062,5,428,2982,1557,50163586,50164,46878,290,571,9250,3082,-755,-107,-725,27.265625,0.09945810586214066,-0.11220858991146088,1.0433374643325806,21.651134490966797,18.944175720214844,-5.759737014770508,-5.953058242797852,6.098127365112305,3.630016326904297,1587,1500,1858,1500,2000,1503,1000,1000,1821,1532,1509,1835,1815,1511,1479,450,530,1975,1976,0,,,,,1,1,1,1,1,1,1,0,1,1,0,0,stabilized_mix,0.93109530210495,0.14563493430614471,-0.31357645988464355,0.09790626168251038,0.07394612580537796,-0.16293008625507355,0.0,0.13920000195503235,-0.09790626168251038,0.06525387614965439,0.0,0.0,0.0,0.0,0.0,0.0,0.0,0.0,0.0,0.0,0.0,-0.18347996473312378,0.0,0.0,0.0,0.0,0.0,-0.18347996473312378,-1.4512388706207275,1.4088237285614014,13.510531425476074,-0.10700508952140808,-0.10331042110919952,0.07176747173070908,0.04880332201719284,-0.08823378384113312,-0.09833408147096634,-0.014703433029353619,-0.05087658762931824,-0.11922486126422882,0.050263188779354095,-2.413662150502205e-05,13.661087989807129,6.951227188110352,6.709860801696777,1835.0,1815.0,0.0,0.0,0.030006086453795433,0.008973333984613419,0.00401263777166605,0.07017996162176132,0.10089549422264099,0.05246998742222786,0.37788358330726624,0.33063822984695435,-0.10052637755870819,0.058526717126369476,0.016551023349165916,-2.4136585125233978e-05,1.0,0.1645670086145401,0.8731942176818848,0,0.30000001192092896,0,0,0,0,0,0.0,0.0,0,4187107301,3820,765
827477062,5,428,2983,1557,50167621,50168,46882,266,2017,8414,-3088,-406,-479,-617,27.078125,0.25178858637809753,-0.10210994631052017,0.9903944730758667,20.55748176574707,14.546010971069336,-8.010900497436523,-5.868584632873535,6.2625627517700195,3.6128435134887695,1587,1500,1858,1500,2000,1503,1000,1000,1821,1528,1484,1832,1818,1511,1479,454,534,1975,1976,0,,,,,1,1,1,1,1,1,1,0,1,1,0,0,stabilized_mix,0.9721060991287231,0.11326906830072403,-0.29620838165283203,0.10103495419025421,0.07390138506889343,-0.16404354572296143,0.0,0.13920000195503235,-0.10103495419025421,0.06529861688613892,0.0,0.0,0.0,0.0,0.0,0.0,0.0,0.0,0.0,0.0,0.0,-0.18347996473312378,0.0,0.0,0.0,0.0,0.0,-0.18347996473312378,-1.4902174472808838,1.3884714841842651,13.508394241333008,-0.10987360030412674,-0.10181277245283127,0.0898900106549263,0.05072798579931259,-0.06769043952226639,-0.09335105121135712,0.024389076977968216,-0.044083938002586365,-0.11862541735172272,0.06990829110145569,-1.705100294202566e-05,13.661087989807129,6.915799140930176,6.745288848876953,1832.0,1818.0,0.0,0.0,0.026220431551337242,-0.01398676261305809,0.00337649486027658,0.07294754683971405,0.1263507604598999,0.051407910883426666,0.35879573225975037,0.2538757920265198,-0.13981658220291138,0.05071975290775299,-0.027458757162094116,-1.7050993847078644e-05,1.0,0.1426151692867279,0.8731942176818848,0,0.30000001192092896,0,0,0,0,0,0.0,0.0,0,1554622943,3820,765
