magic,version,size,sequence,dropped_records,timestamp_us,tick_ms,imu_sequence,raw_temperature,raw_accel_x,raw_accel_y,raw_accel_z,raw_gyro_x,raw_gyro_y,raw_gyro_z,temperature_c,accel_x_g,accel_y_g,accel_z_g,gyro_x_dps,gyro_y_dps,gyro_z_dps,roll_deg,pitch_deg,yaw_deg,rc_ch1_us,rc_ch2_us,rc_ch3_us,rc_ch4_us,rc_ch5_us,rc_ch6_us,rc_ch7_us,rc_ch8_us,throttle_us,servo_alpha_us,servo_beta_us,motor_upper_us,motor_lower_us,rc_armed,rc_link_ok,throttle_over_20,imu_valid,motor_output_reason,rc_link_seen,arm_switch_high,arm_throttle_low,arm_switch_seen_low,arm_switch_prev_high,imu_fault_latched,imu_fault_reason,motor_output_reason_name,acc_nav_m_s2_0,acc_nav_m_s2_1,acc_nav_m_s2_2,vel_est_m_s_0,vel_est_m_s_1,vel_est_m_s_2,vel_ref_m_s_0,vel_ref_m_s_1,vel_err_m_s_0,vel_err_m_s_1,vel_pid_out_m_s2_0,vel_pid_out_m_s2_1,vel_pid_p_m_s2_0,vel_pid_p_m_s2_1,vel_pid_i_m_s2_0,vel_pid_i_m_s2_1,vel_pid_d_m_s2_0,vel_pid_d_m_s2_1,vel_loop_active,ctrl_pos_p_m_s2_0,ctrl_pos_p_m_s2_1,ctrl_pos_p_m_s2_2,ctrl_vel_d_m_s2_0,ctrl_vel_d_m_s2_1,ctrl_vel_d_m_s2_2,ctrl_accel_out_m_s2_0,ctrl_accel_out_m_s2_1,ctrl_accel_out_m_s2_2,ctrl_force_cmd_n_0,ctrl_force_cmd_n_1,ctrl_force_cmd_n_2,ctrl_tilt_ff_rad_0,ctrl_tilt_ff_rad_1,ctrl_tilt_angle_p_rad_0,ctrl_tilt_angle_p_rad_1,ctrl_tilt_rate_d_rad_0,ctrl_tilt_rate_d_rad_1,ctrl_tilt_out_rad_0,ctrl_tilt_out_rad_1,ctrl_yaw_angle_p_rad_s,ctrl_yaw_rate_d_rad_s,ctrl_yaw_torque_cmd,ctrl_total_force_n,ctrl_motor_thrust_cmd_n_0,ctrl_motor_thrust_cmd_n_1,ctrl_motor_cmd_us_0,ctrl_motor_cmd_us_1,ctrl_velocity_integral_m_0,ctrl_velocity_integral_m_1,ctrl_desired_attitude_rpy_rad_0,ctrl_desired_attitude_rpy_rad_1,ctrl_desired_attitude_rpy_rad_2,ctrl_attitude_error_0,ctrl_attitude_error_1,ctrl_attitude_error_2,ctrl_rate_error_rad_s_0,ctrl_rate_error_rad_s_1,ctrl_rate_error_rad_s_2,ctrl_moment_cmd_n_m_0,ctrl_moment_cmd_n_m_1,ctrl_moment_cmd_n_m_2,ctrl_horizontal_command_scale,ctrl_moment_utilization,ctrl_thrust_utilization,ctrl_protection_flags,z_ref_m,record_crc32,sector_seq,sector_index
827477062,3,392,10889,5371,420944461,420945,414588,682,-3648,5136,1110,551,244,-63,30.328125,-0.058257780969142914,0.0844542384147644,0.9616958498954773,2.17696475982666,-15.50610637664795,-2.2618703842163086,2.4069976806640625,-0.9068517088890076,14.100946426391602,1504,1500,1370,1500,2000,1000,1000,1000,1411,1535,1479,1785,1740,1,1,1,1,1,1,1,0,1,1,0,0,stabilized_mix,-0.0862535834312439,0.13778726756572723,1.1958518028259277,-0.03915199637413025,0.02574595995247364,1.8182052373886108,0.0,0.0,0.03915199637413025,-0.02574595995247364,0.0,0.0,0.0,0.0,0.0,0.0,0.0,0.0,0.0,0.0,0.0,1.064467191696167,0.0,0.0,-0.0,0.0,0.0,1.064467191696167,0.18921270966529846,-0.5020254254341125,11.943100929260254,0.015841519460082054,0.042004767805337906,0.002410647226497531,-0.04990804195404053,0.030231429263949394,-0.005730645731091499,0.03272044658660889,-0.0549035519361496,-0.22124022245407104,0.019738541916012764,-7.052556611597538e-05,11.955143928527832,6.330199718475342,5.62494421005249,1785.0,1740.0,0.0,0.0,0.033106088638305664,-0.021089911460876465,0.13478942215442657,-0.07276800274848938,0.004748358391225338,0.11101764440536499,0.03799520060420036,-0.2706325948238373,-0.03947708383202553,0.040022339671850204,-0.03221973776817322,-7.052558794384822e-05,1.0,0.1775825321674347,0.7641530632972717,0,0.0,181871438,789,788
827477062,3,392,10890,5371,420948521,420949,414592,702,1,11353,1425,396,-409,-88,30.484375,0.058761075139045715,-0.06398118287324905,1.0579978227615356,1.2502628564834595,-13.131585121154785,-10.404701232910156,2.3428421020507812,-0.9014188051223755,14.074983596801758,1504,1500,1370,1500,2000,1000,1000,1000,1411,1529,1484,1775,1747,1,1,1,1,1,1,1,0,1,1,0,0,stabilized_mix,0.030934257432818413,0.19142380356788635,1.185154676437378,-0.03807437792420387,0.02554101124405861,1.8213080167770386,0.0,0.0,0.03807437792420387,-0.02554101124405861,0.0,0.0,0.0,0.0,0.0,0.0,0.0,0.0,0.0,0.0,0.0,1.0656933784484863,0.0,0.0,-0.0,0.0,0.0,1.0656933784484863,0.18805287778377533,-0.4885843098163605,11.941997528076172,0.01574588567018509,0.04088524729013443,0.00011115759116364643,-0.04568099230527878,0.025593029335141182,-0.003291643923148513,0.02590801939368248,-0.046082232147455215,-0.22033396363258362,0.09079814702272415,-4.5337481424212456e-05,11.95346736907959,6.203421115875244,5.750046253204346,1775.0,1747.0,0.0,0.0,0.027758216485381126,-0.01667960360646248,0.13502474129199982,-0.06659993529319763,0.00021901912987232208,0.11033223569393158,0.02182120271027088,-0.22918939590454102,-0.1815962940454483,0.03359225019812584,-0.02552105113863945,-4.533753599389456e-05,1.0,0.1490725874900818,0.7640458941459656,0,0.0,2616862174,789,788
827477062,3,392,10891,5371,420952528,420953,414596,688,3804,9222,-4370,409,-206,26,30.375,0.10571123659610748,-0.009642764925956726,0.9686189293861389,1.011880874633789,-13.792585372924805,-0.9755861759185791,2.3235318660736084,-0.9319905042648315,14.067766189575195,1504,1500,1370,1500,2000,1000,1000,1000,1411,1531,1483,1787,1738,1,1,1,1,1,1,1,0,1,1,0,0,stabilized_mix,0.026042934507131577,0.09513761103153229,1.192091941833496,-0.0380038283765316,0.025931714102625847,1.8241666555404663,0.0,0.0,0.0380038283765316,-0.025931714102625847,0.0,0.0,0.0,0.0,0.0,0.0,0.0,0.0,0.0,0.0,0.0,1.0656933784484863,0.0,0.0,-0.0,0.0,0.0,1.0656933784484863,0.1944301575422287,-0.48455530405044556,11.942059516906738,0.016279686242341995,0.04054791107773781,0.00032414935412816703,-0.046581391245126724,0.02688528411090374,-0.0026640393771231174,0.02722502127289772,-0.04896344617009163,-0.22008201479911804,0.00851359497755766,-7.404899224638939e-05,11.95346736907959,6.346978664398193,5.6064887046813965,1787.0,1738.0,0.0,0.0,0.02948860079050064,-0.017519425600767136,0.13497108221054077,-0.06791172176599503,0.0006385995075106621,0.11025809496641159,0.017660653218626976,-0.2407260239124298,-0.01702718995511532,0.035690922290086746,-0.02681439369916916,-7.404894131468609e-05,1.0,0.15838587284088135,0.7640458941459656,0,0.0,626590288,789,788
827477062,3,392,10892,5371,420956563,420957,414600,694,-3048,6971,685,399,271,-127,30.421875,0.007387891411781311,0.04303443431854248,1.0095210075378418,3.035655975341797,-12.327795028686523,-0.2317972183227539,2.245576858520508,-0.9239470958709717,14.050542831420898,1504,1500,1370,1500,2000,1000,1000,1000,1411,1536,1485,1788,1738,1,1,1,1,1,1,1,0,1,1,0,0,stabilized_mix,0.08610997349023819,0.1540178656578064,1.114225149154663,-0.03671726956963539,0.02579527720808983,1.8269444704055786,0.0,0.0,0.03671726956963539,-0.02579527720808983,0.0,0.0,0.0,0.0,0.0,0.0,0.0,0.0,0.0,0.0,0.0,1.0625004768371582,0.0,0.0,-0.0,0.0,0.0,1.0625004768371582,0.19282266497612,-0.4684789478778839,11.947094917297363,0.016138311475515366,0.03918761387467384,-0.0008280760957859457,-0.048901695758104324,0.02403070218861103,-0.007989311590790749,0.023213420063257217,-0.05684160068631172,-0.21948081254959106,0.0020228123757988214,-7.61102419346571e-05,11.957831382751465,6.359467029571533,5.59836483001709,1788.0,1738.0,0.0,0.0,0.03410813957452774,-0.014769132249057293,0.13498389720916748,-0.07131791859865189,-0.001631289254873991,0.1099337786436081,0.05298219248652458,-0.21516060829162598,-0.004045624751597643,0.04144291207194328,-0.022862879559397697,-7.61102928663604e-05,1.0,0.1838444024324417,0.7643248438835144,0,0.0,2409478497,789,788
827477062,3,392,10893,5371,420960596,420961,414604,672,603,9285,1366,324,-396,-134,30.25,0.0838317945599556,-0.06910058110952377,1.0025914907455444,2.471163511276245,-11.615714073181152,-6.666259765625,2.1807479858398438,-0.8746238350868225,14.041337966918945,1504,1500,1370,1500,2000,1000,1000,1000,1411,1532,1486,1780,1744,1,1,1,1,1,1,1,0,1,1,0,0,stabilized_mix,0.23222105205059052,0.1861356645822525,1.1398496627807617,-0.035933103412389755,0.026228053495287895,1.8296986818313599,0.0,0.0,0.035933103412389755,-0.026228053495287895,0.0,0.0,0.0,0.0,0.0,0.0,0.0,0.0,0.0,0.0,0.0,1.0625004768371582,0.0,0.0,-0.0,0.0,0.0,1.0625004768371582,0.1825299859046936,-0.45496687293052673,11.94777774810791,0.015276128426194191,0.03805679455399513,-0.0008063409477472305,-0.04559365287423134,0.022634638473391533,-0.0065036434680223465,0.022086111828684807,-0.05046513304114342,-0.21915951371192932,0.05817408859729767,-5.634489934891462e-05,11.957831382751465,6.2606401443481445,5.69719123840332,1780.0,1744.0,0.0,0.0,0.03030344843864441,-0.014097423292696476,0.13506050407886505,-0.06649695336818695,-0.0015890155918896198,0.1097070574760437,0.04312993958592415,-0.20273245871067047,-0.11634817719459534,0.036798059940338135,-0.021760229021310806,-5.6344895710935816e-05,1.0,0.16323943436145782,0.7643248438835144,0,0.0,500084222,789,788
827477062,3,392,10905,5382,421008999,421009,414652,702,3657,8214,-4428,168,65,-5,30.484375,0.09509029239416122,-0.003598049283027649,1.012061595916748,4.724079132080078,-6.405701637268066,6.993536949157715,1.4057139158248901,-0.6134862303733826,14.165586471557617,1504,1500,1370,1500,2000,1000,1000,1000,1411,1532,1494,1798,1732,1,1,1,1,1,1,1,0,1,1,0,0,stabilized_mix,0.07581081986427307,0.4580627679824829,0.6151122450828552,-0.017219284549355507,0.029940703883767128,1.848356008529663,0.0,0.0,0.017219284549355507,-0.029940703883767128,0.0,0.0,0.0,0.0,0.0,0.0,0.0,0.0,0.0,0.0,0.0,1.0415525436401367,0.0,0.0,-0.0,0.0,0.0,1.0415525436401367,0.12834089994430542,-0.2940336763858795,11.982173919677734,0.010710576549172401,0.024532929062843323,-0.002313910983502865,-0.03630433231592178,0.012451229616999626,-0.012403425760567188,0.009621072560548782,-0.049665115773677826,-0.22349658608436584,-0.06103012338280678,-9.958434384316206e-05,11.986468315124512,6.491156101226807,5.495312690734863,1798.0,1732.0,0.0,0.0,0.02966659888625145,-0.005832845810800791,0.1353147327899933,-0.05308229476213455,-0.004571008030325174,0.11165623366832733,0.082450732588768,-0.11180058121681213,0.12206024676561356,0.03630191832780838,-0.009502820670604706,-9.958434384316206e-05,1.0,0.16065376996994019,0.7661553025245667,0,0.0,883841082,789,788
827477062,3,392,10906,5382,421013058,421013,414656,682,-5354,7402,1816,277,569,-440,30.328125,-0.11550439149141312,-0.06406004726886749,1.0664101839065552,10.643937110900879,-9.113027572631836,6.651331901550293,1.2056995630264282,-0.6724043488502502,14.174806594848633,1504,1500,1370,1500,2000,1000,1000,1000,1411,1546,1490,1797,1732,1,1,1,1,1,1,1,0,1,1,0,0,stabilized_mix,-0.08795085549354553,0.7144718766212463,0.5584397912025452,-0.01715264655649662,0.03240643069148064,1.848851203918457,0.0,0.0,0.01715264655649662,-0.03240643069148064,0.0,0.0,0.0,0.0,0.0,0.0,0.0,0.0,0.0,0.0,0.0,1.0415525436401367,0.0,0.0,-0.0,0.0,0.0,1.0415525436401367,0.14066600799560547,-0.2522003948688507,11.982989311218262,0.011738268658518791,0.021041978150606155,-0.0002093798539135605,-0.04289378970861435,0.017738457769155502,-0.027949383482336998,0.0164214838296175,-0.07216794043779373,-0.22381845116615295,-0.058043818920850754,-9.865174070000648e-05,11.986468315124512,6.486493110656738,5.499975681304932,1797.0,1732.0,0.0,0.0,0.043134693056344986,-0.010078882798552513,0.13505281507968903,-0.06271160393953323,-0.0004130518063902855,0.11205725371837616,0.18577174842357635,-0.15905234217643738,0.11608763784170151,0.0527258925139904,-0.016196923330426216,-9.865178435575217e-05,1.0,0.2333378791809082,0.7661553025245667,0,0.0,2759823580,789,788
827477062,3,392,10907,5382,421016209,421017,414659,684,7705,8124,-1788,263,-223,-81,30.34375,0.07176290452480316,-0.1096312403678894,1.0112779140472412,5.6428117752075195,-8.207249641418457,4.704394340515137,1.1620850563049316,-0.680570662021637,14.201742172241211,1504,1500,1370,1500,2000,1000,1000,1000,1411,1531,1491,1795,1734,1,1,1,1,1,1,1,0,1,1,0,0,stabilized_mix,-0.08554461598396301,0.5934633016586304,0.6094756722450256,-0.01734452322125435,0.033222466707229614,1.8492588996887207,0.0,0.0,0.01734452322125435,-0.033222466707229614,0.0,0.0,0.0,0.0,0.0,0.0,0.0,0.0,0.0,0.0,0.0,1.040158987045288,0.0,0.0,-0.0,0.0,0.0,1.040158987045288,0.1423969268798828,-0.24311687052249908,11.985060691833496,0.011880642734467983,0.020280780270695686,-0.0012255966430529952,-0.03277748078107834,0.015949783846735954,-0.0148134371265769,0.01430942490696907,-0.04841795936226845,-0.22475865483283997,-0.04105358570814133,-9.303423576056957e-05,11.988372802734375,6.459357738494873,5.52901554107666,1795.0,1734.0,0.0,0.0,0.028998520225286484,-0.008956742472946644,0.1352280080318451,-0.047935083508491516,-0.002421635203063488,0.11237400770187378,0.09848564118146896,-0.14324352145195007,0.08210717141628265,0.035396672785282135,-0.01413639448583126,-9.303428669227287e-05,1.0,0.1566227227449417,0.766277015209198,0,0.0,264652060,789,788
827477062,3,392,10908,5382,421020145,421021,414663,668,-7108,5542,-800,289,719,-380,30.21875,-0.0926288515329361,0.02215638756752014,1.0292778015136719,11.821231842041016,-10.262322425842285,10.82437515258789,0.9772071838378906,-0.7735498547554016,14.216329574584961,1504,1500,1370,1500,2000,1000,1000,1000,1411,1547,1489,1803,1728,1,1,1,1,1,1,1,0,1,1,0,0,stabilized_mix,-0.2989833652973175,0.7555657029151917,0.5644499659538269,-0.018114358186721802,0.03600224852561951,1.8497141599655151,0.0,0.0,0.018114358186721802,-0.03600224852561951,0.0,0.0,0.0,0.0,0.0,0.0,0.0,0.0,0.0,0.0,0.0,1.040158987045288,0.0,0.0,-0.0,0.0,0.0,1.040158987045288,0.16185002028942108,-0.2044389545917511,11.985536575317383,0.013502957299351692,0.017053930088877678,-0.0006620701751671731,-0.04100172221660614,0.01997598633170128,-0.031036794185638428,0.017311913892626762,-0.07443422079086304,-0.22526785731315613,-0.09446049481630325,-0.00011190492659807205,11.988372802734375,6.553711414337158,5.434661865234375,1803.0,1728.0,0.0,0.0,0.044496070593595505,-0.010636497288942337,0.13501423597335815,-0.059956468641757965,-0.0013060816563665867,0.11283564567565918,0.2063194215297699,-0.1791113168001175,0.1889209896326065,0.05438726022839546,-0.017074963077902794,-0.00011190491932211444,1.0,0.24065202474594116,0.766277015209198,0,0.0,4050017994,789,788
827477062,3,392,10909,5382,421024153,421025,414667,672,4228,10560,3987,396,-162,-460,30.25,-0.019336290657520294,-0.23555943369865417,1.0782241821289062,9.606179237365723,-10.398834228515625,-0.1499335765838623,0.862237811088562,-0.7881485819816589,14.24073600769043,1504,1500,1370,1500,2000,1000,1000,1000,1411,1537,1487,1790,1738,1,1,1,1,1,1,1,0,1,1,0,0,stabilized_mix,-0.23943087458610535,0.793510377407074,0.6026116013526917,-0.0191769041121006,0.03856386989355087,1.8503066301345825,0.0,0.0,0.0191769041121006,-0.03856386989355087,0.0,0.0,0.0,0.0,0.0,0.0,0.0,0.0,0.0,0.0,0.0,1.040158987045288,0.0,0.0,-0.0,0.0,0.0,1.040158987045288,0.16490431129932404,-0.18038780987262726,11.985880851745605,0.013757346197962761,0.015047464519739151,0.00011110583000117913,-0.0330142080783844,0.020219961181282997,-0.025219770148396492,0.020353596657514572,-0.05822531506419182,-0.22611981630325317,0.0013084172969684005,-7.868395186960697e-05,11.988372802734375,6.387606620788574,5.600766658782959,1790.0,1738.0,0.0,0.0,0.034918464720249176,-0.012847153469920158,0.1350390464067459,-0.04828115552663803,0.0002194172702729702,0.11322528123855591,0.1676594614982605,-0.18149389326572418,-0.002616834593936801,0.04255906492471695,-0.02009625732898712,-7.868398824939504e-05,1.0,0.1883147805929184,0.766277015209198,0,0.0,1917405114,790,789
827477062,3,392,10910,5382,421028185,421029,414671,678,2021,7415,-3808,193,230,-126,30.296875,0.046197958290576935,0.04198509827256203,0.9996198415756226,9.08608627319336,-8.794238090515137,11.880293846130371,0.7764008045196533,-0.8762410283088684,14.276678085327148,1504,1500,1370,1500,2000,1000,1000,1000,1411,1537,1492,1804,1726,1,1,1,1,1,1,1,0,1,1,0,0,stabilized_mix,-0.3515629470348358,0.6149864196777344,0.6350414156913757,-0.02014598809182644,0.04022474214434624,1.8508723974227905,0.0,0.0,0.02014598809182644,-0.04022474214434624,0.0,0.0,0.0,0.0,0.0,0.0,0.0,0.0,0.0,0.0,0.0,1.044573187828064,0.0,0.0,-0.0,0.0,0.0,1.044573187828064,0.18324224650859833,-0.1623457372188568,11.979837417602539,0.01529469434171915,0.013549167662858963,-0.003427649149671197,-0.032026730477809906,0.017108090221881866,-0.02386607974767685,0.011992375366389751,-0.05812301114201546,-0.22737443447113037,-0.10367511957883835,-0.00011586735490709543,11.982338905334473,6.5705060958862305,5.411832332611084,1804.0,1726.0,0.0,0.0,0.03472178429365158,-0.0072958506643772125,0.13523438572883606,-0.0468139611184597,-0.0067657106555998325,0.11373274028301239,0.15858212113380432,-0.1534884124994278,0.2073502391576767,0.042462993413209915,-0.01183539442718029,-0.0001158673403551802,1.0,0.18798428773880005,0.7658913135528564,0,0.0,1565276105,790,789
827477062,3,392,10911,5382,421032202,421033,414675,700,-4719,7576,3789,372,506,-566,30.46875,-0.09736951440572739,-0.07564214617013931,1.0657342672348022,13.645711898803711,-10.897257804870605,5.437802314758301,0.5969922542572021,-0.8939787745475769,14.288660049438477,1504,1500,1370,1500,2000,1000,1000,1000,1411,1546,1488,1796,1733,1,1,1,1,1,1,1,0,1,1,0,0,stabilized_mix,-0.33055663108825684,0.7797966599464417,0.6132982969284058,-0.021310433745384216,0.042868722230196,1.8515870571136475,0.0,0.0,0.021310433745384216,-0.042868722230196,0.0,0.0,0.0,0.0,0.0,0.0,0.0,0.0,0.0,0.0,0.0,1.044573187828064,0.0,0.0,-0.0,0.0,0.0,1.044573187828064,0.18695132434368134,-0.12483229488134384,11.980230331420898,0.015603719279170036,0.010418212041258812,-0.000940969679504633,-0.03575141355395317,0.021220367401838303,-0.035846952348947525,0.019117824733257294,-0.07289836555719376,-0.2277926802635193,-0.04745377600193024,-9.633623994886875e-05,11.982338905334473,6.472850322723389,5.509488105773926,1796.0,1733.0,0.0,0.0,0.043603863567113876,-0.011839905753731728,0.1349712461233139,-0.05225618928670883,-0.0018555494025349617,0.11415980011224747,0.23816260695457458,-0.1901930272579193,0.09490755200386047,0.053240250796079636,-0.018848594278097153,-9.633625450078398e-05,1.0,0.23569537699222565,0.7658913135528564,0,0.0,586475087,790,789
827477062,3,392,10912,5382,421036258,421037,414679,700,8137,9278,-1372,317,-353,-259,30.46875,0.13110904395580292,-0.17191818356513977,1.0266085863113403,7.961328506469727,-9.032130241394043,1.3991923332214355,0.5538387298583984,-0.8921948671340942,14.32160758972168,1504,1500,1370,1500,2000,1000,1000,1000,1411,1529,1491,1792,1736,1,1,1,1,1,1,1,0,1,1,0,0,stabilized_mix,-0.1938662827014923,0.5906585454940796,0.6834069490432739,-0.021806664764881134,0.04376445338129997,1.8523951768875122,0.0,0.0,0.021806664764881134,-0.04376445338129997,0.0,0.0,0.0,0.0,0.0,0.0,0.0,0.0,0.0,0.0,0.0,1.0447824001312256,0.0,0.0,-0.0,0.0,0.0,1.0447824001312256,0.1865738332271576,-0.11580638587474823,11.980040550231934,0.01557246409356594,0.009665138088166714,-0.0026885224506258965,-0.024135276675224304,0.017559707164764404,-0.02091175876557827,0.014696781523525715,-0.04532543942332268,-0.22894275188446045,-0.012210256420075893,-8.44035530462861e-05,11.98205280303955,6.413044452667236,5.569008827209473,1792.0,1736.0,0.0,0.0,0.027163099497556686,-0.009238296188414097,0.13523681461811066,-0.03528066724538803,-0.0053101698867976665,0.1144944578409195,0.1389513909816742,-0.15764041244983673,0.024420512840151787,0.03311997279524803,-0.014513491652905941,-8.440354577032849e-05,1.0,0.14662609994411469,0.7658730745315552,0,0.0,374738867,790,789
827477062,3,392,10913,5382,421040257,421041,414683,700,-5491,6375,-3421,204,706,-236,30.46875,0.007429689168930054,0.13799385726451874,1.0067163705825806,11.30388069152832,-9.151395797729492,14.479400634765625,0.4581344425678253,-0.9386489987373352,14.348653793334961,1504,1500,1370,1500,2000,1000,1000,1000,1411,1540,1493,1807,1724,1,1,1,1,1,1,1,0,1,1,0,0,stabilized_mix,-0.2528861165046692,0.4913555383682251,0.6517641544342041,-0.022683246061205864,0.04595761001110077,1.8531302213668823,0.0,0.0,0.022683246061205864,-0.04595761001110077,0.0,0.0,0.0,0.0,0.0,0.0,0.0,0.0,0.0,0.0,0.0,1.0447824001312256,0.0,0.0,-0.0,0.0,0.0,1.0447824001312256,0.1962873935699463,-0.09579408168792725,11.980062484741211,0.016383038833737373,0.007994881831109524,-0.004021327942609787,-0.029969489201903343,0.017808090895414352,-0.029693732038140297,0.011226602829992771,-0.06249192729592323,-0.22988682985305786,-0.1263566017150879,-0.0001246852334588766,11.98205280303955,6.614452838897705,5.367600440979004,1807.0,1724.0,0.0,0.0,0.037304170429706573,-0.006728011183440685,0.1352367401123047,-0.04380674660205841,-0.007935263216495514,0.11503177136182785,0.19728992879390717,-0.1597219854593277,0.2527132034301758,0.0456496961414814,-0.011076491326093674,-0.00012468518980313092,1.0,0.20209670066833496,0.7658730745315552,0,0.0,4282402640,790,789
827477062,3,392,10924,5392,421084623,421085,414727,688,-6879,6246,-504,55,1297,-228,30.375,0.03908444941043854,0.0016978085041046143,1.0742576122283936,5.6664958000183105,-2.9304587841033936,27.888662338256836,-0.30497339367866516,-0.3410188853740692,15.044195175170898,1504,1500,1369,1500,2000,1000,1000,1000,1410,1514,1499,1829,1709,1,1,1,1,1,1,1,0,1,1,0,0,stabilized_mix,0.43797385692596436,0.4661010801792145,0.35646504163742065,-0.007939701899886131,0.05287741497159004,1.8567208051681519,0.0,0.0,0.007939701899886131,-0.05287741497159004,0.0,0.0,0.0,0.0,0.0,0.0,0.0,0.0,0.0,0.0,0.0,1.0257004499435425,0.0,0.0,-0.0,0.0,0.0,1.0257004499435425,0.07147084176540375,0.06391536444425583,12.0077543258667,0.005951987113803625,-0.005322696175426245,-0.00221657520160079,-0.004737899638712406,0.005680030677467585,-0.014851128682494164,0.0010018175235018134,-0.021311378106474876,-0.2541658282279968,-0.24337448179721832,-0.00017413904424756765,12.008137702941895,6.8747639656066895,5.133373260498047,1829.0,1709.0,0.0,0.0,0.012696466408669949,-0.0003962495247833431,0.1354827731847763,-0.006941531784832478,-0.004391060676425695,0.1267889440059662,0.0988990068435669,-0.05114615336060524,0.48674896359443665,0.015610605478286743,-0.0009923067409545183,-0.00017413910245522857,1.0,0.06895990669727325,0.7675403356552124,0,0.0,4083250909,790,789
827477062,3,392,10925,5392,421088657,421089,414731,672,6765,10071,-82,76,469,-75,30.25,0.13417741656303406,-0.2218908667564392,1.0888874530792236,0.6348952054977417,-1.4171075820922852,23.468826293945312,-0.34448763728141785,-0.2386949062347412,15.162385940551758,1504,1500,1369,1500,2000,1000,1000,1000,1410,1498,1499,1824,1713,1,1,1,1,1,1,1,0,1,1,0,0,stabilized_mix,0.538094699382782,0.44227200746536255,0.35491058230400085,-0.005994098726660013,0.0524679534137249,1.856331467628479,0.0,0.0,0.005994098726660013,-0.0524679534137249,0.0,0.0,0.0,0.0,0.0,0.0,0.0,0.0,0.0,0.0,0.0,1.0245351791381836,0.0,0.0,-0.0,0.0,0.0,1.0245351791381836,0.050032541155815125,0.0722067654132843,12.00940990447998,0.004166087135672569,-0.006012390833348036,-0.0016506147803738713,0.005590897984802723,0.002745756646618247,-0.0016636945074424148,0.0008631241507828236,0.003226807340979576,-0.25829148292541504,-0.20480413734912872,-0.00016208342276513577,12.00973129272461,6.815282344818115,5.194448471069336,1824.0,1713.0,0.0,0.0,-0.0019050762057304382,-0.0006156546296551824,0.13548900187015533,0.008192340843379498,-0.003271047957241535,0.1287912130355835,0.011081011965870857,-0.02473319321870804,0.40960827469825745,-0.002364128129556775,-0.0008552332874387503,-0.00016208345186896622,1.0,0.010442158207297325,0.7676421999931335,0,0.0,1506187458,790,789
827477062,3,392,10926,5392,421092692,421093,414735,662,-1535,8383,-3943,-74,1287,129,30.171875,0.13643628358840942,0.08324874937534332,1.074959635734558,1.258716106414795,-0.3782362937927246,36.54460525512695,-0.38344287872314453,-0.19545623660087585,15.288888931274414,1504,1500,1369,1500,2000,1000,1000,1000,1410,1499,1501,1842,1699,1,1,1,1,1,1,1,0,1,1,0,0,stabilized_mix,0.4735781252384186,0.3717505633831024,0.2820611894130707,-0.004187689162790775,0.05402858555316925,1.8556383848190308,0.0,0.0,0.004187689162790775,-0.05402858555316925,0.0,0.0,0.0,0.0,0.0,0.0,0.0,0.0,0.0,0.0,0.0,1.0245351791381836,0.0,0.0,-0.0,0.0,0.0,1.0245351791381836,0.040969375520944595,0.0803721472620964,12.009391784667969,0.0034114313311874866,-0.006692301947623491,-0.0022712075151503086,0.00538852671161294,0.0007328588981181383,-0.0032983743585646152,-0.0022546113468706608,0.0017990469932556152,-0.2627072334289551,-0.3189118504524231,-0.00020356662571430206,12.00973129272461,7.022698402404785,4.987032413482666,1842.0,1699.0,0.0,0.0,-0.001110477838665247,0.00147621997166425,0.1354861706495285,0.007895809598267078,-0.00450089992955327,0.1309894323348999,0.021968740969896317,-0.006601468659937382,0.6378237009048462,-0.0013180776732042432,0.0022340056020766497,-0.00020356666937004775,1.0,0.007296075578778982,0.7676421999931335,0,0.0,2214389607,790,789
827477062,3,392,10927,5392,421096725,421097,414739,668,-1896,10479,2619,64,1210,-227,30.21875,0.017406798899173737,-0.1748712956905365,1.1548802852630615,2.8949384689331055,-1.7506619691848755,30.106292724609375,-0.514634370803833,-0.12075227499008179,15.407312393188477,1504,1500,1369,1500,2000,1000,1000,1000,1410,1503,1499,1834,1705,1,1,1,1,1,1,1,0,1,1,0,0,stabilized_mix,0.48194459080696106,0.6072688698768616,0.19800856709480286,-0.002325173234567046,0.054039109498262405,1.8547815084457397,0.0,0.0,0.002325173234567046,-0.054039109498262405,0.0,0.0,0.0,0.0,0.0,0.0,0.0,0.0,0.0,0.0,0.0,1.0290976762771606,0.0,0.0,-0.0,0.0,0.0,1.0290976762771606,0.02529764175415039,0.10781446844339371,12.002983093261719,0.002107609761878848,-0.008982044644653797,-3.124014619970694e-05,0.0045607201755046844,0.0033938209526240826,-0.007589976768940687,0.0020047423895448446,-0.004139716736972332,-0.26684099435806274,-0.26272696256637573,-0.00018534879200160503,12.003494262695312,6.928491115570068,5.075003147125244,1834.0,1705.0,0.0,0.0,0.0024990455713123083,-0.0012782987905666232,0.13548463582992554,0.006679362617433071,-6.187672261148691e-05,0.1330297589302063,0.0505262091755867,-0.030554816126823425,0.5254539251327515,0.00303139491006732,-0.001985374838113785,-0.0001853487774496898,1.0,0.013396378606557846,0.7672435641288757,0,0.0,3053323408,790,789
827477062,3,392,10928,5392,421100757,421101,414743,704,7576,9656,-1397,-2,716,140,30.5,0.1619269698858261,-0.13830037415027618,1.0742120742797852,-1.9689944982528687,0.376974493265152,31.887989044189453,-0.5282365083694458,-0.02682119607925415,15.551427841186523,1504,1500,1369,1500,2000,1000,1000,1000,1410,1487,1500,1837,1703,1,1,1,1,1,1,1,0,1,1,0,0,stabilized_mix,0.5437099933624268,0.48175525665283203,0.21083983778953552,-0.0004583440604619682,0.05565674975514412,1.8537182807922363,0.0,0.0,0.0004583440604619682,-0.05565674975514412,0.0,0.0,0.0,0.0,0.0,0.0,0.0,0.0,0.0,0.0,0.0,1.0290976762771606,0.0,0.0,-0.0,0.0,0.0,1.0290976762771606,0.005619053263217211,0.11066422611474991,12.002983093261719,0.0004681380232796073,-0.009219464845955372,-0.0001556473143864423,0.014256639406085014,-0.00073093397077173,0.0051623014733195305,9.178606705972925e-05,0.01967298425734043,-0.27187156677246094,-0.27827519178390503,-0.0001925514079630375,12.003494262695312,6.964504241943359,5.038990020751953,1837.0,1703.0,0.0,0.0,-0.011703457683324814,-0.00032752982224337757,0.13549165427684784,0.020878801122307777,-0.00030823046108707786,0.13550600409507751,-0.03436543792486191,0.006579446140676737,0.5565503835678101,-0.014405068941414356,-9.088258957490325e-05,-0.0001925513643072918,1.0,0.06365906447172165,0.7672435641288757,0,0.0,3809664305,791,790
827477062,3,392,10929,5392,421104792,421105,414747,682,-5628,7773,-3391,-52,1596,3,30.328125,0.0726938247680664,0.01979471743106842,1.0863032341003418,1.6669373512268066,-0.6455277800559998,40.089454650878906,-0.6417979001998901,-0.005552530288696289,15.687143325805664,1504,1500,1369,1500,2000,1000,1000,1000,1410,1497,1500,1848,1694,1,1,1,1,1,1,1,0,1,1,0,0,stabilized_mix,0.4151674509048462,0.6210533380508423,0.13174311816692352,0.0012840444687753916,0.05787035450339317,1.8524378538131714,0.0,0.0,-0.0012840444687753916,-0.05787035450339317,0.0,0.0,0.0,0.0,0.0,0.0,0.0,0.0,0.0,0.0,0.0,1.0290976762771606,0.0,0.0,-0.0,0.0,0.0,1.0290976762771606,0.0011632578680291772,0.1344541609287262,12.002740859985352,9.691601735539734e-05,-0.011201485991477966,0.0005242076586000621,0.009477521292865276,0.0012514156987890601,-0.004370363894850016,0.0007345047779381275,0.004561781883239746,-0.276608943939209,-0.3498464822769165,-0.00021925941109657288,12.003494262695312,7.098044395446777,4.905450344085693,1848.0,1694.0,0.0,0.0,-0.0027007092721760273,-0.0005514274816960096,0.1354892998933792,0.013880060985684395,0.0010382856708019972,0.13785597681999207,0.02909354493021965,-0.011266585439443588,0.699692964553833,-0.0033404589630663395,-0.0007274079835042357,-0.00021925939654465765,1.0,0.014762197621166706,0.7672435641288757,0,0.0,3041681900,791,790
827477062,3,392,10930,5392,421108823,421109,414751,684,4651,11711,4802,136,888,-83,30.34375,0.006318621337413788,-0.2738151550292969,1.1484477519989014,-0.6154305934906006,-1.7137717008590698,29.3748836517334,-0.7390855550765991,0.06827694177627563,15.823053359985352,1504,1500,1369,1500,2000,1000,1000,1000,1410,1490,1496,1834,1704,1,1,1,1,1,1,1,0,1,1,0,0,stabilized_mix,0.4304043650627136,0.7438753843307495,0.09651175886392593,0.0029158855322748423,0.05828399583697319,1.8510798215866089,0.0,0.0,-0.0029158855322748423,-0.05828399583697319,0.0,0.0,0.0,0.0,0.0,0.0,0.0,0.0,0.0,0.0,0.0,1.03605318069458,0.0,0.0,0.0,0.0,0.0,1.03605318069458,-0.014292717911303043,0.15471172332763672,11.992979049682617,-0.0011917565716430545,-0.012899467721581459,0.00307230232283473,0.015238345600664616,0.0033253252040594816,0.0016148058930411935,0.006679569371044636,0.01579168066382408,-0.2813531160354614,-0.2563442289829254,-0.00018819409888237715,11.993985176086426,6.937963485717773,5.0560221672058105,1834.0,1704.0,0.0,0.0,-0.009267446584999561,-0.004662827588617802,0.13553103804588318,0.022298721596598625,0.006079711019992828,0.14014983177185059,-0.01074128970503807,-0.02991095930337906,0.5126884579658508,-0.01155418436974287,-0.0066089872270822525,-0.00018819405522663146,1.0,0.051100872457027435,0.7666357755661011,0,0.0,3300705518,791,790
827477062,3,392,10931,5392,421112857,421113,414755,660,3228,9204,-3061,-52,1076,219,30.15625,0.17127898335456848,-0.034229472279548645,1.099685788154602,-2.3567235469818115,0.6751448512077332,37.16187286376953,-0.7787017822265625,0.1181989312171936,15.970090866088867,1504,1500,1369,1500,2000,1000,1000,1000,1410,1483,1499,1845,1695,1,1,1,1,1,1,1,0,1,1,0,0,stabilized_mix,0.4037138521671295,0.64438396692276,0.05842651426792145,0.004212948493659496,0.060783158987760544,1.8494653701782227,0.0,0.0,-0.004212948493659496,-0.060783158987760544,0.0,0.0,0.0,0.0,0.0,0.0,0.0,0.0,0.0,0.0,0.0,1.03605318069458,0.0,0.0,0.0,0.0,0.0,1.03605318069458,-0.024743100628256798,0.1630038022994995,11.992852210998535,-0.0020631509833037853,-0.013590880669653416,0.0017515496583655477,0.019991882145404816,-0.0013103224337100983,0.00618375837802887,0.0018072302918881178,0.026706498116254807,-0.2864856719970703,-0.32429853081703186,-0.00021377450320869684,11.993985176086426,7.065865516662598,4.928120136260986,1845.0,1695.0,0.0,0.0,-0.015852292999625206,-0.0015827715396881104,0.13551293313503265,0.029253896325826645,0.0034653025213629007,0.14271698892116547,-0.04113258421421051,0.011783500202000141,0.6485970616340637,-0.01953863725066185,-0.0017877310747280717,-0.00021377445955295116,1.0,0.08641384541988373,0.7666357755661011,0,0.0,4225385522,791,790
827477062,3,392,10932,5392,421116891,421117,414759,678,-4048,8473,-1261,-35,1531,-92,30.296875,-0.023987196385860443,-0.12931272387504578,1.1419569253921509,0.711260199546814,-0.6558080315589905,37.61286163330078,-0.9242490530014038,0.11333006620407104,16.105527877807617,1504,1500,1369,1500,2000,1000,1000,1000,1410,1491,1498,1847,1694,1,1,1,1,1,1,1,0,1,1,0,0,stabilized_mix,0.2233027219772339,0.8695254325866699,-0.01773979142308235,0.005000696051865816,0.06154392287135124,1.8476884365081787,0.0,0.0,-0.005000696051865816,-0.06154392287135124,0.0,0.0,0.0,0.0,0.0,0.0,0.0,0.0,0.0,0.0,0.0,1.0365843772888184,0.0,0.0,0.0,0.0,0.0,1.0365843772888184,-0.023722445592284203,0.193456768989563,11.991676330566406,-0.0019782399758696556,-0.01613115705549717,0.00250143650919199,0.016752371564507484,0.0012725478736683726,-0.001866362988948822,0.003356805071234703,0.014365550130605698,-0.29121333360671997,-0.32823413610458374,-0.00021680665668100119,11.993260383605957,7.080663681030273,4.912596702575684,1847.0,1694.0,0.0,0.0,-0.008480590768158436,-0.0024407177697867155,0.13550852239131927,0.024512559175491333,0.004949847236275673,0.14504298567771912,0.012413832359015942,-0.011446009390056133,0.6564682722091675,-0.010510176420211792,-0.0033212231937795877,-0.0002168066130252555,1.0,0.04648633673787117,0.7665894031524658,0,0.0,1238464546,791,790
827477062,3,392,10943,5402,421160254,421161,414802,702,269,6996,-3024,9,1214,474,30.484375,0.11427047848701477,0.042737092822790146,1.0186046361923218,-10.013174057006836,-1.9913920164108276,38.73335266113281,-1.5659239292144775,0.33410054445266724,17.662813186645508,1504,1500,1369,1500,2000,1000,1000,1000,1410,1454,1488,1856,1686,1,1,1,1,1,1,1,0,1,1,0,0,stabilized_mix,0.13706226646900177,0.7272606492042542,0.07950357347726822,0.003692744765430689,0.08320417255163193,1.8258346319198608,0.0,0.0,-0.003692744765430689,-0.08320417255163193,0.0,0.0,0.0,0.0,0.0,0.0,0.0,0.0,0.0,0.0,0.0,1.0409942865371704,0.0,0.0,0.0,0.0,0.0,1.0409942865371704,-0.06989899277687073,0.32757100462913513,11.982549667358398,-0.005833332892507315,-0.02733006700873375,0.009311194531619549,0.04810430854558945,0.0038759745657444,0.026291029527783394,0.01925479806959629,0.07281067967414856,-0.345572829246521,-0.3380122780799866,-0.00023925481946207583,11.98723030090332,7.189888954162598,4.7973408699035645,1856.0,1686.0,0.0,0.0,-0.04288051649928093,-0.014029772020876408,0.1360897719860077,0.07032839953899384,0.01836860179901123,0.17136532068252563,-0.17476285994052887,-0.03475634753704071,0.6760245561599731,-0.05319803208112717,-0.018991492688655853,-0.00023925477580633014,1.0,0.2354123890399933,0.7662039995193481,0,0.0,4145854118,791,790
827477062,3,392,10944,5402,421164288,421165,414806,674,-4376,8163,2305,176,1379,131,30.265625,0.02560316026210785,-0.20603859424591064,1.1225955486297607,-9.282025337219238,-3.277383327484131,34.6037483215332,-1.676721453666687,0.39248567819595337,17.79682731628418,1504,1500,1369,1500,2000,1000,1000,1000,1410,1455,1486,1851,1690,1,1,1,1,1,1,1,0,1,1,0,0,stabilized_mix,0.19569650292396545,0.9823176860809326,0.042429037392139435,0.004350179806351662,0.08604829758405685,1.82432222366333,0.0,0.0,-0.004350179806351662,-0.08604829758405685,0.0,0.0,0.0,0.0,0.0,0.0,0.0,0.0,0.0,0.0,0.0,1.0409942865371704,0.0,0.0,0.0,0.0,0.0,1.0409942865371704,-0.08211389183998108,0.3507397174835205,11.981816291809082,-0.006853101775050163,-0.029263624921441078,0.01099883858114481,0.04849456623196602,0.006377956364303827,0.024370895698666573,0.022401614114642143,0.07050969451665878,-0.35025084018707275,-0.30197465419769287,-0.0002282789209857583,11.98723030090332,7.135009765625,4.85222053527832,1851.0,1690.0,0.0,0.0,-0.04143794625997543,-0.016098080202937126,0.13615523278713226,0.07089851051568985,0.021701350808143616,0.17358548939228058,-0.16200190782546997,-0.05720112845301628,0.6039493083953857,-0.05151968076825142,-0.022098442539572716,-0.0002282789209857583,1.0,0.22798532247543335,0.7662039995193481,0,0.0,3010440012,791,790
827477062,3,392,10945,5402,421168321,421169,414810,688,10568,10372,-1838,-61,683,672,30.375,0.17243793606758118,-0.22907355427742004,1.0487972497940063,-15.851808547973633,-0.03279012441635132,32.4974250793457,-1.6410216093063354,0.46788710355758667,17.949766159057617,1504,1500,1370,1500,2000,1000,1000,1000,1411,1435,1489,1849,1692,1,1,1,1,1,1,1,0,1,1,0,0,stabilized_mix,0.3177502751350403,0.7664119005203247,0.1621500849723816,0.004796548280864954,0.08581046015024185,1.8229340314865112,0.0,0.0,-0.004796548280864954,-0.08581046015024185,0.0,0.0,0.0,0.0,0.0,0.0,0.0,0.0,0.0,0.0,0.0,1.0491061210632324,0.0,0.0,0.0,0.0,0.0,1.0491061210632324,-0.09779814630746841,0.3429531455039978,11.970831871032715,-0.008169521577656269,-0.028640275821089745,0.009485960006713867,0.060882676392793655,6.404839950846508e-05,0.041666992008686066,0.017637217417359352,0.10265772044658661,-0.3555893898010254,-0.2835935354232788,-0.00022371404338628054,11.976142883300781,7.10664176940918,4.869501113891602,1849.0,1692.0,0.0,0.0,-0.06062464788556099,-0.013488282449543476,0.1363065242767334,0.08890737593173981,0.018647026270627975,0.176186203956604,-0.2766662538051605,-0.0005722956266254187,0.5671870708465576,-0.0748705342411995,-0.01733454130589962,-0.00022371401428245008,1.0,0.33162444829940796,0.7654953002929688,0,0.0,4015995319,791,790
827477062,3,392,10946,5402,421172355,421173,414814,684,-8512,6428,-3546,-5,1687,414,30.34375,0.06874581426382065,0.11116676032543182,1.0481230020523071,-10.829663276672363,-2.1874077320098877,41.849395751953125,-1.6903220415115356,0.48507434129714966,18.088315963745117,1504,1500,1369,1500,2000,1000,1000,1000,1410,1450,1485,1864,1674,1,1,1,1,1,1,1,0,1,1,0,0,stabilized_mix,0.2314741015434265,0.7799326181411743,0.11180625110864639,0.0057342504151165485,0.08876252919435501,1.8215123414993286,0.0,0.0,-0.0057342504151165485,-0.08876252919435501,0.0,0.0,0.0,0.0,0.0,0.0,0.0,0.0,0.0,0.0,0.0,1.0491061210632324,0.0,0.0,0.0,0.0,0.0,1.0491061210632324,-0.1013905331492424,0.35325250029563904,11.970502853393555,-0.008469829335808754,-0.029500627890229225,0.012019260786473751,0.051771484315395355,0.004263225942850113,0.028461726382374763,0.02338295988738537,0.07835321873426437,-0.3604257106781006,-0.3652048707008362,-0.0002539707056712359,11.976142883300781,7.257925033569336,4.718217849731445,1864.0,1674.0,0.0,0.0,-0.04605172201991081,-0.016913939267396927,0.1362672597169876,0.07561518251895905,0.023678822442889214,0.1785283386707306,-0.18901327252388,-0.03817746788263321,0.7304097414016724,-0.05718666687607765,-0.023031525313854218,-0.0002539707056712359,1.0,0.25329720973968506,0.7654953002929688,0,0.0,4103231470,791,790
827477062,3,392,10947,5402,421176393,421177,414818,700,4333,12347,5023,205,920,319,30.46875,0.030422233045101166,-0.3584684133529663,1.1608020067214966,-15.282861709594727,-2.2649550437927246,29.49859046936035,-1.7329061031341553,0.5636913180351257,18.22920036315918,1504,1500,1369,1500,2000,1000,1000,1000,1410,1436,1485,1846,1693,1,1,1,1,1,1,1,0,1,1,0,0,stabilized_mix,0.3239480257034302,0.9227440357208252,0.12019748240709305,0.006605873350054026,0.08806206285953522,1.8203092813491821,0.0,0.0,-0.006605873350054026,-0.08806206285953522,0.0,0.0,0.0,0.0,0.0,0.0,0.0,0.0,0.0,0.0,0.0,1.0543787479400635,0.0,0.0,0.0,0.0,0.0,1.0543787479400635,-0.11775171011686325,0.36192673444747925,11.962882041931152,-0.009842771105468273,-0.03024345263838768,0.012612218037247658,0.06086818873882294,0.004425478633493185,0.04019487649202347,0.024118643254041672,0.09976829588413239,-0.36534345149993896,-0.2574237585067749,-0.000217968481592834,11.968935012817383,7.074310302734375,4.894625186920166,1846.0,1693.0,0.0,0.0,-0.05873876437544823,-0.017777658998966217,0.1365332156419754,0.08883275091648102,0.02478453330695629,0.18080052733421326,-0.26673623919487,-0.0395309217274189,0.5148475170135498,-0.07272651791572571,-0.023696355521678925,-0.00021796851069666445,1.0,0.32232192158699036,0.765034556388855,0,0.0,1839023356,792,791
827477062,3,392,10948,5402,421180426,421181,414822,670,6879,7304,-3928,-128,1048,861,30.234375,0.1508326530456543,-0.01562720537185669,1.014072060585022,-18.21331787109375,0.44919633865356445,40.400230407714844,-1.666630506515503,0.5747550129890442,18.38936424255371,1504,1500,1370,1500,2000,1000,1000,1000,1411,1427,1486,1863,1674,1,1,1,1,1,1,1,0,1,1,0,0,stabilized_mix,0.253257691860199,0.6009098887443542,0.19790975749492645,0.007345507852733135,0.09049291163682938,1.8190444707870483,0.0,0.0,-0.007345507852733135,-0.09049291163682938,0.0,0.0,0.0,0.0,0.0,0.0,0.0,0.0,0.0,0.0,0.0,1.0543787479400635,0.0,0.0,0.0,0.0,0.0,1.0543787479400635,-0.12006276845932007,0.34808802604675293,11.96327018737793,-0.010035611689090729,-0.029086723923683167,0.011859400197863579,0.0659143254160881,-0.0008790590218268335,0.04790759086608887,0.02255425415933132,0.11438865214586258,-0.37093424797058105,-0.35255852341651917,-0.00025322241708636284,11.968935012817383,7.250579833984375,4.718355655670166,1863.0,1674.0,0.0,0.0,-0.06744536012411118,-0.017016446217894554,0.13663719594478607,0.09618696570396423,0.02326863259077072,0.18352170288562775,-0.31788235902786255,0.007839955389499664,0.7051170468330383,-0.08334054797887802,-0.02212482877075672,-0.0002532224461901933,0.9973379373550415,0.369363009929657,0.765034556388855,2,0.0,2371801813,792,791
827477062,3,392,10949,5402,421184454,421185,414826,680,-9494,6356,1330,72,1718,304,30.3125,-0.06560948491096497,-0.06264166533946991,1.0882116556167603,-13.159914016723633,-3.5889437198638916,38.73829650878906,-1.7702600955963135,0.5832679867744446,18.52345085144043,1504,1500,1370,1500,2000,1000,1000,1000,1411,1444,1481,1861,1677,1,1,1,1,1,1,1,0,1,1,0,0,stabilized_mix,0.1405963897705078,0.8697235584259033,0.14443601667881012,0.008148700930178165,0.09308470040559769,1.8179171085357666,0.0,0.0,-0.008148700930178165,-0.09308470040559769,0.0,0.0,0.0,0.0,0.0,0.0,0.0,0.0,0.0,0.0,0.0,1.0543787479400635,0.0,0.0,0.0,0.0,0.0,1.0543787479400635,-0.12184102088212967,0.3697246015071869,11.962602615356445,-0.01018480770289898,-0.03089526854455471,0.014957759529352188,0.056953929364681244,0.007005114573985338,0.03460898622870445,0.029963294044137,0.08870372176170349,-0.3756147623062134,-0.33805540204048157,-0.0002497845853213221,11.968935012817383,7.2333903312683105,4.735544681549072,1861.0,1677.0,0.0,0.0,-0.05201689153909683,-0.02151227369904518,0.13660775125026703,0.08312655985355377,0.02942424640059471,0.18573620915412903,-0.22968383133411407,-0.06263888627290726,0.6761108040809631,-0.06468343734741211,-0.029467925429344177,-0.00024978452711366117,1.0,0.28667521476745605,0.765034556388855,0,0.0,3416078438,792,791
827477062,3,392,10950,5402,421188489,421189,414830,688,11232,11462,556,161,601,694,30.375,0.1507173329591751,-0.34401869773864746,1.0708457231521606,-21.29439926147461,-0.9707818031311035,30.21822166442871,-1.7360695600509644,0.6726431250572205,18.678354263305664,1504,1500,1370,1500,2000,1000,1000,1000,1411,1419,1484,1849,1691,1,1,1,1,1,1,1,0,1,1,0,0,stabilized_mix,0.2940004765987396,0.7699399590492249,0.24317879974842072,0.008348529227077961,0.09217824041843414,1.8169667720794678,0.0,0.0,-0.008348529227077961,-0.09217824041843414,0.0,0.0,0.0,0.0,0.0,0.0,0.0,0.0,0.0,0.0,0.0,1.0591357946395874,0.0,0.0,0.0,0.0,0.0,1.0591357946395874,-0.14043377339839935,0.36238279938697815,11.956117630004883,-0.011745226569473743,-0.030298039317131042,0.013525878079235554,0.07209820300340652,0.0019039149628952146,0.05605030432343483,0.025574181228876114,0.12778399884700775,-0.3810219168663025,-0.26370373368263245,-0.00022565398830920458,11.962431907653809,7.109486103057861,4.8529462814331055,1849.0,1691.0,0.0,0.0,-0.07529310882091522,-0.019294241443276405,0.13694320619106293,0.10513880848884583,0.026480525732040405,0.18828536570072174,-0.3716573715209961,-0.01694333925843239,0.5274074673652649,-0.09299910813570023,-0.02503218501806259,-0.00022565397375728935,0.9577863216400146,0.41239356994628906,0.7646189332008362,2,0.0,1018518953,792,791
827477062,3,392,10951,5402,421192527,421193,414834,688,-3196,8039,-8603,-160,1645,769,30.375,0.15846292674541473,0.0668865218758583,1.0318180322647095,-17.999582290649414,0.3629004955291748,46.08917236328125,-1.7480132579803467,0.6489648222923279,18.83453941345215,1504,1500,1370,1500,2000,1000,1000,1000,1411,1427,1483,1875,1657,1,1,1,1,1,1,1,0,1,1,0,0,stabilized_mix,0.11982198059558868,0.7129945158958435,0.2470143884420395,0.008711620233952999,0.09487634897232056,1.8159990310668945,0.0,0.0,-0.008711620233952999,-0.09487634897232056,0.0,0.0,0.0,0.0,0.0,0.0,0.0,0.0,0.0,0.0,0.0,1.0591357946395874,0.0,0.0,0.0,0.0,0.0,1.0591357946395874,-0.13549046218395233,0.3648768961429596,11.956098556518555,-0.011331845074892044,-0.03050662949681282,0.013710121624171734,0.06714524328708649,-0.0007106221164576709,0.04737072065472603,0.026057010516524315,0.11505510658025742,-0.38647377490997314,-0.40220388770103455,-0.00027603714261204004,11.962431907653809,7.3614020347595215,4.601030349731445,1875.0,1657.0,0.0,0.0,-0.06773092597723007,-0.019431065768003464,0.13680583238601685,0.09792730212211609,0.02688293159008026,0.19101843237876892,-0.31415197253227234,0.0063338084146380424,0.8044077754020691,-0.08377842605113983,-0.025544321164488792,-0.0002760371717158705,0.9620175957679749,0.3715055286884308,0.7646189332008362,2,0.0,979404877,792,791
827477062,3,392,10964,5414,421244962,421245,414886,682,-986,9336,7417,303,1079,656,30.328125,-0.04951661825180054,-0.2703164517879486,1.043694019317627,-26.68389892578125,-4.953949928283691,30.5384464263916,-1.9000533819198608,1.0631260871887207,20.82010841369629,1505,1500,1370,1500,2000,1000,1000,1000,1411,1404,1471,1861,1672,1,1,1,1,1,1,1,0,1,1,0,0,stabilized_mix,0.10585901886224747,0.8170442581176758,0.692848265171051,0.013172685168683529,0.1114356592297554,1.8167860507965088,0.0,0.0,-0.013172685168683529,-0.1114356592297554,0.0,0.0,0.0,0.0,0.0,0.0,0.0,0.0,0.0,0.0,0.0,1.0797693729400635,0.0,0.0,0.0,0.0,0.0,1.0797693729400635,-0.22142745554447174,0.3956243693828583,11.92561149597168,-0.018565256148576736,-0.03315647318959236,0.023245137184858322,0.08339030295610428,0.009770703501999378,0.0704236775636673,0.04594574496150017,0.15102657675743103,-0.45578324794769287,-0.2664982080459595,-0.0002527984615880996,11.934226036071777,7.231105327606201,4.703120708465576,1861.0,1672.0,0.0,0.0,-0.08835989236831665,-0.0336340069770813,0.13846690952777863,0.12128351628780365,0.04525074362754822,0.22384989261627197,-0.46572187542915344,-0.08646273612976074,0.532996416091919,-0.10953699797391891,-0.04470902681350708,-0.00025279849069193006,0.7703021764755249,0.48687687516212463,0.7628160119056702,2,0.0,4186175445,792,791
827477062,3,392,10965,5414,421248996,421249,414890,672,7686,7842,-3322,-66,735,1232,30.25,0.17435352504253387,-0.09279732406139374,0.9977483153343201,-31.447498321533203,0.5590807795524597,33.87033462524414,-1.7747870683670044,1.0986034870147705,20.971036911010742,1505,1500,1370,1500,2000,1000,1000,1000,1411,1388,1478,1867,1662,1,1,1,1,1,1,1,0,1,1,0,0,stabilized_mix,0.14685213565826416,0.5108240842819214,0.788027822971344,0.012241687625646591,0.10906437784433365,1.818030595779419,0.0,0.0,-0.012241687625646591,-0.10906437784433365,0.0,0.0,0.0,0.0,0.0,0.0,0.0,0.0,0.0,0.0,0.0,1.0862797498703003,0.0,0.0,0.0,0.0,0.0,1.0862797498703003,-0.22864513099193573,0.3692704737186432,11.917413711547852,-0.01918344758450985,-0.03097018226981163,0.01926964521408081,0.09137372672557831,-0.0011079490650445223,0.08308454602956772,0.03513120859861374,0.1755373179912567,-0.4610516428947449,-0.295574426651001,-0.00026481912937015295,11.925325393676758,7.2867584228515625,4.638566970825195,1867.0,1662.0,0.0,0.0,-0.10310828685760498,-0.027025509625673294,0.13828392326831818,0.13276466727256775,0.037333760410547256,0.22668421268463135,-0.5488623976707458,0.00975780002772808,0.591148853302002,-0.12704937160015106,-0.03402739018201828,-0.00026481912937015295,0.7394436597824097,0.5651383996009827,0.7622471451759338,2,0.0,2451835000,792,791
827477062,3,392,10966,5414,421253029,421253,414894,674,-6323,4319,-4358,25,1508,817,30.265625,0.004561141133308411,-0.04843316972255707,0.9510438442230225,-26.255338668823242,-4.114186763763428,36.17789840698242,-1.822384238243103,1.072242259979248,21.095613479614258,1505,1500,1370,1500,2000,1000,1000,1000,1411,1406,1470,1872,1656,1,1,1,1,1,1,1,0,1,1,0,0,stabilized_mix,0.03127805516123772,0.6809095144271851,0.8229361176490784,0.012469652108848095,0.11092738062143326,1.8194098472595215,0.0,0.0,-0.012469652108848095,-0.11092738062143326,0.0,0.0,0.0,0.0,0.0,0.0,0.0,0.0,0.0,0.0,0.0,1.0862797498703003,0.0,0.0,0.0,0.0,0.0,1.0862797498703003,-0.22315940260887146,0.37917375564575195,11.917205810546875,-0.0187236275523901,-0.03180103376507759,0.02356223575770855,0.0811983123421669,0.008116479031741619,0.06934259831905365,0.046752750873565674,0.1477767825126648,-0.46540015935897827,-0.31571170687675476,-0.0002733891305979341,11.925325393676758,7.32960844039917,4.595716953277588,1872.0,1656.0,0.0,0.0,-0.08636582642793655,-0.03417225182056427,0.1384459286928177,0.11801449209451675,0.045856136828660965,0.22856642305850983,-0.4582420885562897,-0.07180610299110413,0.6314234137535095,-0.10711739957332611,-0.045482054352760315,-0.0002733891305979341,0.7579502463340759,0.4764774441719055,0.7622471451759338,2,0.0,1883183928,792,791
827477062,3,392,10967,5414,421256052,421257,414897,692,7172,6830,-1045,83,608,1129,30.40625,0.1819760799407959,-0.19008195400238037,0.9990839958190918,-32.188011169433594,-0.5215473175048828,29.292057037353516,-1.7651464939117432,1.167670726776123,21.198198318481445,1504,1500,1370,1500,2000,1000,1000,1000,1411,1387,1477,1860,1670,1,1,1,1,1,1,1,0,1,1,0,0,stabilized_mix,0.22485169768333435,0.5803775191307068,0.8433517813682556,0.01277176197618246,0.11198505759239197,1.8205962181091309,0.0,0.0,-0.01277176197618246,-0.11198505759239197,0.0,0.0,0.0,0.0,0.0,0.0,0.0,0.0,0.0,0.0,0.0,1.0862797498703003,0.0,0.0,0.0,0.0,0.0,1.0862797498703003,-0.24301771819591522,0.3672564923763275,11.917191505432129,-0.020389370620250702,-0.03080122172832489,0.020149435847997665,0.09186290204524994,0.0010338890133425593,0.08504566550254822,0.03621050715446472,0.17728009819984436,-0.4689810276031494,-0.25562140345573425,-0.00025361086591146886,11.925325393676758,7.230717182159424,4.694608211517334,1860.0,1670.0,0.0,0.0,-0.10409930348396301,-0.027836795896291733,0.138395756483078,0.1334734410047531,0.03902595117688179,0.23050594329833984,-0.5617867708206177,-0.009102717973291874,0.5112428069114685,-0.1282975673675537,-0.03506143391132355,-0.00025361086591146886,0.7217751741409302,0.5706906318664551,0.7622471451759338,2,0.0,3902640150,792,791
827477062,3,392,10968,5414,421260115,421261,414901,700,-912,6088,-8885,-86,1292,1034,30.46875,0.11846236884593964,-0.097863107919693,0.9649062156677246,-29.41639518737793,-2.175297260284424,35.22211456298828,-1.794864535331726,1.1307365894317627,21.323408126831055,1505,1500,1370,1500,2000,1000,1000,1000,1411,1396,1472,1871,1655,1,1,1,1,1,1,1,0,1,1,0,0,stabilized_mix,0.11552087962627411,0.6790316104888916,0.8910197615623474,0.01232701912522316,0.10992173105478287,1.822271466255188,0.0,0.0,-0.01232701912522316,-0.10992173105478287,0.0,0.0,0.0,0.0,0.0,0.0,0.0,0.0,0.0,0.0,0.0,1.091841697692871,0.0,0.0,0.0,0.0,0.0,1.091841697692871,-0.23518188297748566,0.3732043504714966,11.90955638885498,-0.019744757562875748,-0.03132019191980362,0.022520190104842186,0.08711448311805725,0.004304948262870312,0.07775682210922241,0.04331523925065994,0.16378819942474365,-0.47335171699523926,-0.3073709309101105,-0.0002732528664637357,11.917722702026367,7.325125694274902,4.592597007751465,1871.0,1655.0,0.0,0.0,-0.09589686989784241,-0.03227057680487633,0.1385914534330368,0.1265113800764084,0.04369053617119789,0.23242411017417908,-0.5134129524230957,-0.03796609863638878,0.614741861820221,-0.11854897439479828,-0.042007509618997574,-0.00027325289556756616,0.7263407707214355,0.52766352891922,0.7617611885070801,2,0.0,2506918887,793,792
827477062,3,392,10969,5414,421264148,421265,414905,680,1172,8189,3420,215,1009,994,30.3125,0.025440692901611328,-0.16985197365283966,0.965346097946167,-30.679553985595703,-4.0205912590026855,28.587587356567383,-1.7877695560455322,1.2377235889434814,21.445730209350586,1505,1500,1370,1500,2000,1000,1000,1000,1411,1393,1471,1861,1669,1,1,1,1,1,1,1,0,1,1,0,0,stabilized_mix,0.26333698630332947,0.704779326915741,0.9272276759147644,0.013133971020579338,0.11176250874996185,1.8240631818771362,0.0,0.0,-0.013133971020579338,-0.11176250874996185,0.0,0.0,0.0,0.0,0.0,0.0,0.0,0.0,0.0,0.0,0.0,1.091841697692871,0.0,0.0,0.0,0.0,0.0,1.091841697692871,-0.2574308216571808,0.3717152774333954,11.909143447875977,-0.02161286771297455,-0.031195182353258133,0.024337630718946457,0.08856698870658875,0.007962234318256378,0.08110294491052628,0.046272143721580505,0.16781266033649445,-0.47762155532836914,-0.24947376549243927,-0.0002544832823332399,11.917722702026367,7.231277942657471,4.686445236206055,1861.0,1669.0,0.0,0.0,-0.09818226099014282,-0.0343211404979229,0.13886773586273193,0.12861530482769012,0.04718402400612831,0.23437830805778503,-0.5354592204093933,-0.07017255574464798,0.49894753098487854,-0.121434785425663,-0.044842954725027084,-0.0002544833405409008,0.7113581895828247,0.5405083894729614,0.7617611885070801,2,0.0,2732531565,793,792
827477062,3,392,10970,5414,421268182,421269,414909,668,769,9478,-1633,5,832,1012,30.21875,0.20707160234451294,-0.15187278389930725,0.989594578742981,-31.26246452331543,-0.5362878441810608,28.875295639038086,-1.7792433500289917,1.2862725257873535,21.568933486938477,1505,1500,1370,1500,2000,1000,1000,1000,1411,1390,1476,1861,1667,1,1,1,1,1,1,1,0,1,1,0,0,stabilized_mix,0.3291587233543396,0.7076243162155151,0.9461833834648132,0.013399682939052582,0.10965794324874878,1.825990080833435,0.0,0.0,-0.013399682939052582,-0.10965794324874878,0.0,0.0,0.0,0.0,0.0,0.0,0.0,0.0,0.0,0.0,0.0,1.0981167554855347,0.0,0.0,0.0,0.0,0.0,1.0981167554855347,-0.2673341631889343,0.3696698546409607,11.900403022766113,-0.022460518404841423,-0.031045828014612198,0.02150714211165905,0.09036071598529816,0.0010638207895681262,0.08270704001188278,0.036968499422073364,0.17338921129703522,-0.4819221496582031,-0.25198447704315186,-0.0002568672935012728,11.909144401550293,7.238908767700195,4.670235633850098,1861.0,1667.0,0.0,0.0,-0.10171440243721008,-0.028367260470986366,0.13838277757167816,0.13111865520477295,0.04162735864520073,0.23683999478816986,-0.5456329584121704,-0.009359988383948803,0.5039689540863037,-0.1253400295972824,-0.035771120339632034,-0.00025686732260510325,0.7002968192100525,0.5582925081253052,0.7612128853797913,2,0.0,3349345369,793,792
827477062,3,392,10971,5414,421272202,421273,414913,690,4569,10503,-1685,-55,950,1133,30.390625,0.045322149991989136,-0.16516312956809998,1.0022718906402588,-32.373390197753906,-1.3314623832702637,29.737585067749023,-1.7349750995635986,1.29225492477417,21.685026168823242,1505,1500,1370,1500,2000,1000,1000,1000,1411,1387,1474,1864,1664,1,1,1,1,1,1,1,0,1,1,0,0,stabilized_mix,0.22983790934085846,0.6352095603942871,1.0011935234069824,0.014298568479716778,0.11136671900749207,1.8280855417251587,0.0,0.0,-0.014298568479716778,-0.11136671900749207,0.0,0.0,0.0,0.0,0.0,0.0,0.0,0.0,0.0,0.0,0.0,1.0981167554855347,0.0,0.0,0.0,0.0,0.0,1.0981167554855347,-0.2685772776603699,0.3604743182659149,11.900657653808594,-0.022564442828297615,-0.030273323878645897,0.02264869399368763,0.09128871560096741,0.0026427798438817263,0.085653156042099,0.04065714031457901,0.1767890304327011,-0.4859745502471924,-0.2595093846321106,-0.000260919303400442,11.909144401550293,7.259169101715088,4.649975776672363,1864.0,1664.0,0.0,0.0,-0.10360381752252579,-0.030882088467478752,0.1386982947587967,0.1324615180492401,0.04381012171506882,0.2386254072189331,-0.5650222301483154,-0.023238401859998703,0.5190187692642212,-0.12777230143547058,-0.03931475803256035,-0.0002609193616081029,0.6887235045433044,0.5691263675689697,0.7612128853797913,2,0.0,3185093021,793,792
827477062,3,392,10972,5414,421276219,421277,414917,676,-4425,7928,2510,87,1049,948,30.28125,0.017744779586791992,0.013959527015686035,0.9694283604621887,-29.42625617980957,-2.167747974395752,28.827777862548828,-1.7186543941497803,1.349592924118042,21.79619789123535,1504,1500,1370,1500,2000,1000,1000,1000,1411,1397,1474,1863,1665,1,1,1,1,1,1,1,0,1,1,0,0,stabilized_mix,0.27559831738471985,0.5883946418762207,1.0340651273727417,0.015216249972581863,0.11314745247364044,1.8302780389785767,0.0,0.0,-0.015216249972581863,-0.11314745247364044,0.0,0.0,0.0,0.0,0.0,0.0,0.0,0.0,0.0,0.0,0.0,1.0981167554855347,0.0,0.0,0.0,0.0,0.0,1.0981167554855347,-0.28049203753471375,0.35707613825798035,11.900485038757324,-0.02356543578207493,-0.029987851157784462,0.02374461106956005,0.08520868420600891,0.004292012192308903,0.07783907651901245,0.041544072329998016,0.16224992275238037,-0.48985517024993896,-0.25156980752944946,-0.0002594987163320184,11.909144401550293,7.252065658569336,4.657078742980957,1863.0,1665.0,0.0,0.0,-0.09498783200979233,-0.031215408816933632,0.13846135139465332,0.12366141378879547,0.04604404419660568,0.24065716564655304,-0.5135850310325623,-0.03783433884382248,0.5031396150588989,-0.11736088246107101,-0.04027201235294342,-0.00025949874543584883,0.6977078914642334,0.5227515697479248,0.7612128853797913,2,0.0,1938248380,793,792
827477062,3,392,10983,5424,421320589,421321,414961,688,4756,8886,-3223,-91,637,1190,30.375,0.09975261241197586,-0.051221106201410294,0.9265519380569458,-31.597644805908203,0.4020385146141052,21.418880462646484,-1.3022266626358032,1.8128504753112793,22.876161575317383,1504,1500,1370,1500,2000,1000,1000,1000,1411,1395,1478,1855,1668,1,1,1,1,1,1,1,0,1,1,0,0,stabilized_mix,0.2504807710647583,0.2776663899421692,1.4287900924682617,0.021755563095211983,0.1013021320104599,1.8650175333023071,0.0,0.0,-0.021755563095211983,-0.1013021320104599,0.0,0.0,0.0,0.0,0.0,0.0,0.0,0.0,0.0,0.0,0.0,1.1401227712631226,0.0,0.0,0.0,0.0,0.0,1.1401227712631226,-0.37492841482162476,0.269209623336792,11.842731475830078,-0.03164837509393692,-0.022716764360666275,0.025001509115099907,0.0807410255074501,-0.0008002959657460451,0.0840018168091774,0.03503253310918808,0.16549454629421234,-0.5275530219078064,-0.18691499531269073,-0.000250063807470724,11.851722717285156,7.176180362701416,4.67554235458374,1855.0,1668.0,0.0,0.0,-0.09686355292797089,-0.027302179485559464,0.13814038038253784,0.11662702262401581,0.04822121188044548,0.2595624029636383,-0.5514829158782959,0.007016895804554224,0.37382999062538147,-0.11910948902368546,-0.033780794590711594,-0.00025006377836689353,0.6326783299446106,0.5331107378005981,0.7575425505638123,2,0.0,1009872076,793,792
827477062,3,392,10984,5424,421324622,421325,414965,668,-7526,8044,4196,43,828,735,30.21875,-0.014301471412181854,0.0030586421489715576,0.9496155977249146,-26.023910522460938,-1.21523118019104,19.33130645751953,-1.326036810874939,1.8399405479431152,22.945039749145508,1504,1500,1370,1500,2000,1000,1000,1000,1411,1411,1476,1852,1672,1,1,1,1,1,1,1,0,1,1,0,0,stabilized_mix,0.21510550379753113,0.3831409215927124,1.3920553922653198,0.022499561309814453,0.10199020802974701,1.8687232732772827,0.0,0.0,-0.022499561309814453,-0.10199020802974701,0.0,0.0,0.0,0.0,0.0,0.0,0.0,0.0,0.0,0.0,0.0,1.1401227712631226,0.0,0.0,0.0,0.0,0.0,1.1401227712631226,-0.38052916526794434,0.27412691712379456,11.842439651489258,-0.03212161362171173,-0.023131774738430977,0.0265340656042099,0.07064846158027649,0.002409439068287611,0.0691579133272171,0.03696474805474281,0.13964460790157318,-0.5299573540687561,-0.16869747638702393,-0.0002445292193442583,11.851722717285156,7.148507595062256,4.7032151222229,1852.0,1672.0,0.0,0.0,-0.08153723180294037,-0.028006205335259438,0.13777613639831543,0.10207474231719971,0.051380258053541183,0.26082098484039307,-0.45420292019844055,-0.02120978571474552,0.33739495277404785,-0.10063723474740982,-0.03578510507941246,-0.00024452919024042785,0.6504349112510681,0.45043253898620605,0.7575425505638123,2,0.0,3765866030,793,792
827477062,3,392,10985,5424,421328657,421329,414969,664,10593,9339,-975,70,108,1005,30.1875,0.13906970620155334,-0.3023539185523987,0.9705959558486938,-31.966140747070312,0.18262004852294922,12.616758346557617,-1.2348058223724365,1.8746280670166016,23.019224166870117,1504,1500,1370,1500,2000,1000,1000,1000,1411,1395,1481,1844,1686,1,1,1,1,1,1,1,0,1,1,0,0,stabilized_mix,0.21405716240406036,0.2574131488800049,1.4318549633026123,0.022158224135637283,0.09795354306697845,1.8726513385772705,0.0,0.0,-0.022158224135637283,-0.09795354306697845,0.0,0.0,0.0,0.0,0.0,0.0,0.0,0.0,0.0,0.0,0.0,1.14678955078125,0.0,0.0,0.0,0.0,0.0,1.14678955078125,-0.3874024748802185,0.2550687789916992,11.83352279663086,-0.032726023346185684,-0.02153988927602768,0.023701300844550133,0.0795624777674675,-0.0003637859772425145,0.08504937589168549,0.029796240851283073,0.16522538661956787,-0.532546877861023,-0.11010198295116425,-0.0002249270910397172,11.842609405517578,7.045940399169922,4.7966694831848145,1844.0,1686.0,0.0,0.0,-0.09684441238641739,-0.023906173184514046,0.13781005144119263,0.11483990401029587,0.04568083956837654,0.2622472047805786,-0.5579143762588501,0.003187321126461029,0.2202039659023285,-0.11882608383893967,-0.02871241793036461,-0.00022492710559163243,0.626720666885376,0.5322515964508057,0.7569600343704224,2,0.0,3941041336,793,792
827477062,3,392,10986,5424,421332692,421333,414973,698,-2700,7504,-983,-284,721,1068,30.453125,-0.0268046073615551,0.1199592873454094,0.9317411184310913,-27.536752700805664,2.460103988647461,21.217435836791992,-1.1451826095581055,1.834881067276001,23.091310501098633,1505,1500,1369,1500,2000,1000,1000,1000,1410,1408,1483,1855,1666,1,1,1,1,1,1,1,0,1,1,0,0,stabilized_mix,0.04215095564723015,0.07770789414644241,1.4708091020584106,0.02238437533378601,0.09797047823667526,1.8765571117401123,0.0,0.0,-0.02238437533378601,-0.09797047823667526,0.0,0.0,0.0,0.0,0.0,0.0,0.0,0.0,0.0,0.0,0.0,1.14678955078125,0.0,0.0,0.0,0.0,0.0,1.14678955078125,-0.37919139862060547,0.23656359314918518,11.834173202514648,-0.0320311114192009,-0.019976958632469177,0.02289484441280365,0.07038608938455582,-0.004885254893451929,0.0732416883111,0.027335001155734062,0.14512784779071808,-0.5350631475448608,-0.18515706062316895,-0.00025207706494256854,11.842609405517578,7.181690692901611,4.660919666290283,1855.0,1666.0,0.0,0.0,-0.08506762236356735,-0.021837882697582245,0.13734985888004303,0.10161807388067245,0.0442657396197319,0.26368391513824463,-0.4806070029735565,0.042936913669109344,0.3703141212463379,-0.10448115319013596,-0.026424270123243332,-0.00025207706494256854,0.6445696353912354,0.46799707412719727,0.7569600343704224,2,0.0,2537403034,793,792
827477062,3,392,10987,5424,421336725,421337,414977,684,-2900,8971,4173,286,620,614,30.34375,-0.00948476791381836,-0.20157164335250854,0.9864343404769897,-25.647428512573242,-4.877494812011719,13.438864707946777,-1.1927406787872314,1.879885196685791,23.14573860168457,1504,1500,1369,1500,2000,1000,1000,1000,1410,1414,1472,1845,1682,1,1,1,1,1,1,1,0,1,1,0,0,stabilized_mix,0.08906784653663635,0.2956629693508148,1.4433526992797852,0.021799994632601738,0.09300050884485245,1.8806034326553345,0.0,0.0,-0.021799994632601738,-0.09300050884485245,0.0,0.0,0.0,0.0,0.0,0.0,0.0,0.0,0.0,0.0,0.0,1.152452826499939,0.0,0.0,0.0,0.0,0.0,1.152452826499939,-0.38823452591896057,0.24621903896331787,11.825934410095215,-0.032817292958498,-0.020806048065423965,0.029429864138364792,0.06715496629476547,0.00967740174382925,0.06825308501720428,0.04461339861154556,0.13430726528167725,-0.5369630455970764,-0.11727621406316757,-0.00022898369934409857,11.834867477416992,7.062352180480957,4.772514820098877,1845.0,1682.0,0.0,0.0,-0.07806190848350525,-0.03295138105750084,0.13806483149528503,0.09689703583717346,0.05694694444537163,0.26405686140060425,-0.4476320743560791,-0.08512834459543228,0.23455242812633514,-0.09667671471834183,-0.0431554950773716,-0.00022898372844792902,0.6402087807655334,0.43332231044769287,0.7564651966094971,2,0.0,3334642984,794,793
827477062,3,392,10988,5424,421340757,421341,414981,680,8291,6812,-5350,-53,151,1077,30.3125,0.18907926976680756,-0.14084972441196442,0.9229090809822083,-29.87226676940918,3.132050037384033,14.541858673095703,-1.0826021432876587,1.9142639636993408,23.22071647644043,1505,1500,1369,1500,2000,1000,1000,1000,1410,1402,1486,1847,1679,1,1,1,1,1,1,1,0,1,1,0,0,stabilized_mix,0.10904034227132797,0.0887768566608429,1.5115864276885986,0.021689098328351974,0.09258423745632172,1.8847293853759766,0.0,0.0,-0.021689098328351974,-0.09258423745632172,0.0,0.0,0.0,0.0,0.0,0.0,0.0,0.0,0.0,0.0,0.0,1.152452826499939,0.0,0.0,0.0,0.0,0.0,1.152452826499939,-0.39533185958862305,0.22348138689994812,11.826151847839355,-0.03341617062687874,-0.01888442412018776,0.02160954475402832,0.0728100836277008,-0.006231777369976044,0.07951831072568893,0.02232394553720951,0.15375876426696777,-0.5395802855491638,-0.12690165638923645,-0.00023326868540607393,11.834867477416992,7.083776950836182,4.751090049743652,1847.0,1679.0,0.0,0.0,-0.09030850231647491,-0.01879044994711876,0.13718929886817932,0.10504287481307983,0.04169955477118492,0.2660694420337677,-0.5213693976402283,0.05466458573937416,0.2538033127784729,-0.11057479679584503,-0.021538948640227318,-0.00023326868540607393,0.6305592656135559,0.49561595916748047,0.7564651966094971,2,0.0,3216069881,794,793
827477062,3,392,10989,5424,421344796,421345,414985,674,-4793,5725,-5501,-134,803,807,30.265625,0.02129608392715454,-0.031046397984027863,0.9307572841644287,-24.29133415222168,-1.2600865364074707,18.27417755126953,-1.1255167722702026,1.860619306564331,23.2772274017334,1505,1500,1370,1500,2000,1000,1000,1000,1411,1419,1477,1852,1670,1,1,1,1,1,1,1,0,1,1,0,0,stabilized_mix,-0.06014639139175415,0.2333686798810959,1.5031828880310059,0.021476369351148605,0.09261593222618103,1.8888953924179077,0.0,0.0,-0.021476369351148605,-0.09261593222618103,0.0,0.0,0.0,0.0,0.0,0.0,0.0,0.0,0.0,0.0,0.0,1.152452826499939,0.0,0.0,0.0,0.0,0.0,1.152452826499939,-0.38425713777542114,0.232346311211586,11.826346397399902,-0.03248019143939018,-0.019633613526821136,0.026420297101140022,0.06346247345209122,0.0024979710578918457,0.06463905423879623,0.03599492833018303,0.12787003815174103,-0.5415528416633606,-0.1594722867012024,-0.00024535879492759705,11.834867477416992,7.144227504730225,4.690639495849609,1852.0,1670.0,0.0,0.0,-0.07454368472099304,-0.027161790058016777,0.1375160813331604,0.09157655388116837,0.05116826295852661,0.2666208744049072,-0.4239637553691864,-0.02199265919625759,0.3189445734024048,-0.09206900745630264,-0.03485226631164551,-0.00024535879492759705,0.6423507332801819,0.41266974806785583,0.7564651966094971,2,0.0,1887969567,794,793
827477062,3,392,10990,5424,421348823,421349,414989,702,2984,7535,3891,238,325,763,30.484375,0.018795818090438843,-0.18892404437065125,0.9036569595336914,-25.722089767456055,-2.6403379440307617,10.550003051757812,-1.108844518661499,1.9305353164672852,23.33101463317871,1505,1500,1370,1500,2000,1000,1000,1000,1411,1415,1477,1842,1686,1,1,1,1,1,1,1,0,1,1,0,0,stabilized_mix,0.059559136629104614,0.2352793663740158,1.5564621686935425,0.020696789026260376,0.08887623995542526,1.8931570053100586,0.0,0.0,-0.020696789026260376,-0.08887623995542526,0.0,0.0,0.0,0.0,0.0,0.0,0.0,0.0,0.0,0.0,0.0,1.1587941646575928,0.0,0.0,0.0,0.0,0.0,1.1587941646575928,-0.39839887619018555,0.22872807085514069,11.817272186279297,-0.03370050713419914,-0.019342001527547836,0.027108920738101006,0.0655815377831459,0.0052420892752707005,0.06850233674049377,0.036685675382614136,0.13378635048866272,-0.5434303879737854,-0.09206614643335342,-0.00022242381237447262,11.82619857788086,7.025218486785889,4.800980091094971,1842.0,1686.0,0.0,0.0,-0.07799149304628372,-0.027765432372689247,0.13765740394592285,0.09456073492765427,0.05242231488227844,0.26750829815864563,-0.4489351511001587,-0.04608258977532387,0.18413229286670685,-0.09623345732688904,-0.03546714782714844,-0.00022242378327064216,0.6330716013908386,0.4316517412662506,0.755911111831665,2,0.0,2026033084,794,793
827477062,3,392,10991,5424,421352856,421353,414993,674,-772,7593,-3551,-100,418,778,30.265625,0.16380983591079712,-0.07029812037944794,0.9517540335655212,-24.000329971313477,0.3829392194747925,15.690391540527344,-1.1127010583877563,1.9302308559417725,23.392919540405273,1505,1500,1370,1500,2000,1000,1000,1000,1411,1419,1481,1849,1674,1,1,1,1,1,1,1,0,1,1,0,0,stabilized_mix,0.034959904849529266,0.24661561846733093,1.518704891204834,0.020326120778918266,0.08902929723262787,1.8974274396896362,0.0,0.0,-0.020326120778918266,-0.08902929723262787,0.0,0.0,0.0,0.0,0.0,0.0,0.0,0.0,0.0,0.0,0.0,1.1587941646575928,0.0,0.0,0.0,0.0,0.0,1.1587941646575928,-0.3983360528945923,0.22952355444431305,11.817258834838867,-0.03369523212313652,-0.01940927840769291,0.025162572041153908,0.06261496245861053,-0.0007595935603603721,0.06391052156686783,0.03040798380970955,0.1269099861383438,-0.5455912947654724,-0.13692449033260345,-0.00023888051509857178,11.82619857788086,7.107501983642578,4.718696594238281,1849.0,1674.0,0.0,0.0,-0.07414538413286209,-0.02348354086279869,0.13723205029964447,0.09028901904821396,0.04870323836803436,0.2687807083129883,-0.4188847839832306,0.00668355030938983,0.2738489806652069,-0.09131454676389694,-0.02942655049264431,-0.00023888051509857178,0.6369339823722839,0.40958812832832336,0.755911111831665,2,0.0,1117079355,794,793
827477062,3,392,11002,5434,421396220,421397,415036,668,3705,6866,-4115,-12,57,393,30.21875,0.14439769089221954,0.001026652753353119,0.9218736886978149,-9.326102256774902,-1.1248379945755005,11.285154342651367,-0.9828897714614868,1.7352418899536133,23.953222274780273,1505,1500,1370,1500,2000,1000,1000,1000,1411,1463,1482,1844,1676,1,1,1,1,1,1,1,0,1,1,0,0,stabilized_mix,-0.26234906911849976,-0.19554324448108673,1.6945219039916992,0.009736699983477592,0.0674557238817215,1.9478821754455566,0.0,0.0,-0.009736699983477592,-0.0674557238817215,0.0,0.0,0.0,0.0,0.0,0.0,0.0,0.0,0.0,0.0,0.0,1.1859437227249146,0.0,0.0,0.0,0.0,0.0,1.1859437227249146,-0.3569859564304352,0.2021351158618927,11.781944274902344,-0.030290143564343452,-0.017146795988082886,0.02439354546368122,0.03345819190144539,0.0022239938843995333,0.024898292496800423,0.02829119563102722,0.05810803920030594,-0.5651495456695557,-0.09848155081272125,-0.00023227091878652573,11.789085388183594,7.055897235870361,4.733188152313232,1844.0,1676.0,0.0,0.0,-0.03338851407170296,-0.020376844331622124,0.13616839051246643,0.04811682552099228,0.04736839234828949,0.2783927321434021,-0.16277119517326355,-0.01963212713599205,0.1969631016254425,-0.041767388582229614,-0.02746756561100483,-0.00023227087513078004,0.6425873041152954,0.18793591856956482,0.7535389065742493,2,0.0,1938657965,794,793
827477062,3,392,11003,5434,421400280,421401,415040,676,-522,8392,-390,39,656,123,30.28125,-0.02192557416856289,-0.10373218357563019,0.9656817317008972,-5.018616676330566,-4.078949928283691,12.424430847167969,-1.0478214025497437,1.7322430610656738,23.986536026000977,1505,1500,1370,1500,2000,1000,1000,1000,1411,1475,1476,1846,1673,1,1,1,1,1,1,1,0,1,1,0,0,stabilized_mix,-0.2552299201488495,-0.09103791415691376,1.6846097707748413,0.00833345577120781,0.06349349766969681,1.9528300762176514,0.0,0.0,-0.00833345577120781,-0.06349349766969681,0.0,0.0,0.0,0.0,0.0,0.0,0.0,0.0,0.0,0.0,0.0,1.191203236579895,0.0,0.0,0.0,0.0,0.0,1.191203236579895,-0.356151819229126,0.2153560370206833,11.774541854858398,-0.030238395556807518,-0.018279574811458588,0.0278988778591156,0.026896730065345764,0.008062352426350117,0.013405608013272285,0.036956388503313065,0.03922087699174881,-0.5663124322891235,-0.108423613011837,-0.00023615758982487023,11.781895637512207,7.071735858917236,4.710159778594971,1846.0,1673.0,0.0,0.0,-0.0218542218208313,-0.02560042217373848,0.13604731857776642,0.038659632205963135,0.05419032275676727,0.2787836790084839,-0.08759138733148575,-0.07119110226631165,0.216847226023674,-0.02818295545876026,-0.03588822856545448,-0.00023615760437678546,0.6418648362159729,0.12688899040222168,0.753079354763031,2,0.0,2264767875,794,793
827477062,3,392,11004,5434,421404286,421405,415044,684,677,5867,-33,177,151,136,30.34375,0.10883525758981705,-0.014571035280823708,0.8766739368438721,-4.3285393714904785,-3.2405529022216797,8.193099975585938,-1.0289167165756226,1.782280683517456,24.03359031677246,1505,1500,1370,1500,2000,1000,1000,1000,1411,1477,1478,1840,1682,1,1,1,1,1,1,1,0,1,1,0,0,stabilized_mix,-0.08701741695404053,-0.22575077414512634,1.7117973566055298,0.007424414157867432,0.061986155807971954,1.9576047658920288,0.0,0.0,-0.007424414157867432,-0.061986155807971954,0.0,0.0,0.0,0.0,0.0,0.0,0.0,0.0,0.0,0.0,0.0,1.191203236579895,0.0,0.0,0.0,0.0,0.0,1.191203236579895,-0.3664363920688629,0.21146537363529205,11.774296760559082,-0.03111167997121811,-0.017949296161532402,0.027588019147515297,0.025299502536654472,0.00640446413308382,0.01156220119446516,0.034559085965156555,0.0362967848777771,-0.5679548978805542,-0.07149828225374222,-0.000223808572627604,11.781895637512207,7.009990692138672,4.771904945373535,1840.0,1682.0,0.0,0.0,-0.02020733430981636,-0.02393542416393757,0.13597151637077332,0.03636438399553299,0.05359259247779846,0.27961620688438416,-0.07554726302623749,-0.05655831843614578,0.14299656450748444,-0.026082752272486687,-0.03356488049030304,-0.00022380860173143446,0.6400348544120789,0.11743317544460297,0.753079354763031,2,0.0,1022300547,794,793
827477062,3,392,11005,5434,421408319,421409,415048,694,-960,8475,-3015,-51,300,15,30.421875,0.14148645102977753,-0.09187086671590805,0.9708346128463745,-2.6333768367767334,-0.7785519361495972,9.87891674041748,-1.0796535015106201,1.8007152080535889,24.07135581970215,1505,1500,1370,1500,2000,1000,1000,1000,1411,1481,1482,1843,1677,1,1,1,1,1,1,1,0,1,1,0,0,stabilized_mix,-0.032428525388240814,-0.16463853418827057,1.6573290824890137,0.006638646591454744,0.05798834562301636,1.9624723196029663,0.0,0.0,-0.006638646591454744,-0.05798834562301636,0.0,0.0,0.0,0.0,0.0,0.0,0.0,0.0,0.0,0.0,0.0,1.1972819566726685,0.0,0.0,0.0,0.0,0.0,1.1972819566726685,-0.3699641525745392,0.2217329889535904,11.765682220458984,-0.031433988362550735,-0.018834201619029045,0.02567564882338047,0.023001931607723236,0.0015394394285976887,0.0070390235632658005,0.027629174292087555,0.029878094792366028,-0.5692731738090515,-0.08620981127023697,-0.0002294190344400704,11.77358627319336,7.033888339996338,4.7396979331970215,1843.0,1677.0,0.0,0.0,-0.016656577587127686,-0.019162636250257492,0.13580702245235443,0.03303925320506096,0.04985387623310089,0.2803131341934204,-0.04596109688282013,-0.013588294386863708,0.17241962254047394,-0.021456679329276085,-0.026823032647371292,-0.00022941904899198562,0.6418575048446655,0.09667324274778366,0.7525482177734375,2,0.0,3550505617,794,793
827477062,3,392,11006,5434,421412353,421413,415052,676,3957,8720,-369,47,266,151,30.28125,0.04934077709913254,-0.012027822434902191,0.9057832360267639,-2.5486297607421875,-2.2631897926330566,8.67509651184082,-1.0292643308639526,1.8068857192993164,24.107114791870117,1505,1500,1370,1500,2000,1000,1000,1000,1411,1482,1480,1841,1680,1,1,1,1,1,1,1,0,1,1,0,0,stabilized_mix,-0.03349732235074043,-0.367707759141922,1.7325211763381958,0.006287094205617905,0.05601223558187485,1.9673057794570923,0.0,0.0,-0.006287094205617905,-0.05601223558187485,0.0,0.0,0.0,0.0,0.0,0.0,0.0,0.0,0.0,0.0,0.0,1.1972819566726685,0.0,0.0,0.0,0.0,0.0,1.1972819566726685,-0.3712315261363983,0.21138477325439453,11.765832901000977,-0.031541191041469574,-0.017955118790268898,0.027187146246433258,0.02191602997481823,0.004474839195609093,0.006812490988522768,0.03201540932059288,0.028308745473623276,-0.5705214142799377,-0.07570450007915497,-0.0002261790505144745,11.77358627319336,7.017688274383545,4.755897521972656,1841.0,1680.0,0.0,0.0,-0.01555617805570364,-0.02202770859003067,0.13583049178123474,0.03147975355386734,0.05279042571783066,0.2808752655982971,-0.04448198154568672,-0.03950011357665062,0.15140900015830994,-0.020329974591732025,-0.03108135238289833,-0.00022617906506638974,0.637719452381134,0.10358642786741257,0.7525482177734375,2,0.0,3951598676,795,794
827477062,3,392,11007,5434,421416479,421417,415056,684,-8434,6278,2732,-36,514,-248,30.34375,0.010351225733757019,0.07628573477268219,0.9406773447990417,3.6887543201446533,-0.28786686062812805,10.0540771484375,-1.106999397277832,1.8428244590759277,24.13899040222168,1505,1500,1370,1500,2000,1000,1000,1000,1411,1499,1483,1843,1675,1,1,1,1,1,1,1,0,1,1,0,0,stabilized_mix,0.03434907644987106,-0.2657647430896759,1.6466461420059204,0.0059991255402565,0.05223594233393669,1.972168207168579,0.0,0.0,-0.0059991255402565,-0.05223594233393669,0.0,0.0,0.0,0.0,0.0,0.0,0.0,0.0,0.0,0.0,0.0,1.2038929462432861,0.0,0.0,0.0,0.0,0.0,1.2038929462432861,-0.37832212448120117,0.22716863453388214,11.756270408630371,-0.03216935321688652,-0.019310791045427322,0.026506563648581505,0.011815284378826618,0.0005693861749023199,-0.009867704473435879,0.02648642100393772,0.0018852470675483346,-0.57163405418396,-0.08773837238550186,-0.00023078033700585365,11.764549255371094,7.036176681518555,4.728373050689697,1843.0,1675.0,0.0,0.0,-9.555117867421359e-05,-0.017611581832170486,0.13548950850963593,0.0169591773301363,0.05145024135708809,0.28135305643081665,0.06438090652227402,-0.005024224519729614,0.17547674477100372,-0.0013530340511351824,-0.025705575942993164,-0.00023078035155776888,0.6423251032829285,0.08570190519094467,0.7519705891609192,2,0.0,3776186990,795,794
827477062,3,392,11008,5434,421420426,421421,415060,690,8196,10505,-4615,87,-128,-9,30.390625,0.16274748742580414,-0.19550785422325134,0.9539212584495544,-0.7703118324279785,-1.2525262832641602,5.0706586837768555,-1.074244499206543,1.8656947612762451,24.17787742614746,1505,1500,1370,1500,2000,1000,1000,1000,1411,1486,1481,1836,1686,1,1,1,1,1,1,1,0,1,1,0,0,stabilized_mix,0.06733687967061996,-0.37355393171310425,1.7144324779510498,0.005846369545906782,0.04980529099702835,1.97697114944458,0.0,0.0,-0.005846369545906782,-0.04980529099702835,0.0,0.0,0.0,0.0,0.0,0.0,0.0,0.0,0.0,0.0,0.0,1.2038929462432861,0.0,0.0,0.0,0.0,0.0,1.2038929462432861,-0.38301563262939453,0.22044488787651062,11.756245613098145,-0.03256823867559433,-0.018739162012934685,0.027213770896196365,0.01943628117442131,0.002477997215464711,0.00206061196513474,0.02975490130484104,0.02136075682938099,-0.5729914903640747,-0.044249843806028366,-0.00021603447385132313,11.764549255371094,6.962447166442871,4.802102565765381,1836.0,1686.0,0.0,0.0,-0.011514060199260712,-0.020333169028162956,0.13572192192077637,0.027896936982870102,0.0528106689453125,0.2820461690425873,-0.013444477692246437,-0.02186070755124092,0.08849968761205673,-0.015329370275139809,-0.02887027896940708,-0.0002160344592994079,0.6341335773468018,0.09627475589513779,0.7519705891609192,2,0.0,3071444146,795,794
827477062,3,392,11009,5434,421424454,421425,415064,676,-3193,4669,557,-209,522,7,30.28125,-0.01710614748299122,0.186076819896698,0.879356324672699,4.42127799987793,1.5400116443634033,13.591889381408691,-1.0656793117523193,1.860123872756958,24.213472366333008,1505,1500,1370,1500,2000,1000,1000,1000,1411,1501,1487,1848,1667,1,1,1,1,1,1,1,0,1,1,0,0,stabilized_mix,-0.0018485598266124725,-0.5339331030845642,1.6902730464935303,0.005855719558894634,0.04752931743860245,1.9816620349884033,0.0,0.0,-0.005855719558894634,-0.04752931743860245,0.0,0.0,0.0,0.0,0.0,0.0,0.0,0.0,0.0,0.0,0.0,1.2038929462432861,0.0,0.0,0.0,0.0,0.0,1.2038929462432861,-0.38187235593795776,0.21868813037872314,11.756316184997559,-0.03247089684009552,-0.0185898095369339,0.024797381833195686,0.009548970498144627,-0.0030460692942142487,-0.011827345937490463,0.020795049145817757,-0.0018282613018527627,-0.5742339491844177,-0.11861161142587662,-0.0002424958802293986,11.764549255371094,7.094754219055176,4.669795513153076,1848.0,1667.0,0.0,0.0,0.0018901923904195428,-0.013732888735830784,0.13546185195446014,0.013706313446164131,0.04813336580991745,0.28264033794403076,0.07716585695743561,0.026878273114562035,0.23722322285175323,0.0013121356023475528,-0.0201828982681036,-0.00024249593843705952,0.639950692653656,0.06728939712047577,0.7519705891609192,2,0.0,2156118726,795,794
827477062,3,392,11011,5435,421432552,421433,415072,664,9383,7303,-7281,-198,-150,63,30.1875,0.18781965970993042,-0.045759811997413635,0.8855873346328735,2.8251302242279053,4.529537200927734,8.44134521484375,-1.078730821609497,1.9114065170288086,24.28505516052246,1505,1500,1370,1500,2000,1000,1000,1000,1411,1496,1492,1841,1677,1,1,1,1,1,1,1,0,1,1,0,0,stabilized_mix,0.04716583341360092,-0.6117814779281616,1.7268909215927124,0.005505774635821581,0.04041013866662979,1.991340160369873,0.0,0.0,-0.005505774635821581,-0.04041013866662979,0.0,0.0,0.0,0.0,0.0,0.0,0.0,0.0,0.0,0.0,0.0,1.2081900835037231,0.0,0.0,0.0,0.0,0.0,1.2081900835037231,-0.3922005891799927,0.2212490737438202,11.750049591064453,-0.03336624428629875,-0.018816929310560226,0.022484105080366135,0.012333009392023087,-0.008963917382061481,-0.007561167236417532,0.013139519840478897,0.00559401698410511,-0.5767326951026917,-0.07366463541984558,-0.0002276390150655061,11.758674621582031,7.017531871795654,4.7411417961120605,1841.0,1677.0,0.0,0.0,-0.0028039729222655296,-0.008870716206729412,0.13551269471645355,0.017693422734737396,0.04362153261899948,0.2839263081550598,0.049307823181152344,0.07905533909797668,0.14732927083969116,-0.004012779798358679,-0.01274673268198967,-0.00022763904416933656,0.6364318132400513,0.04251919314265251,0.7515950798988342,2,0.0,2589120492,795,794
827477062,3,392,11023,5446,421480918,421481,415120,692,2688,5504,-5386,-404,309,-526,30.40625,0.046820126473903656,0.14131411910057068,0.8673676252365112,22.467456817626953,6.983337879180908,12.794585227966309,-1.6244181394577026,2.0639493465423584,24.728097915649414,1505,1500,1370,1500,2000,1000,1000,1000,1411,1546,1496,1848,1661,1,1,1,1,1,1,1,0,1,1,0,0,stabilized_mix,-0.2512829303741455,-0.7726039290428162,1.756350040435791,0.0021164531353861094,0.0030080799479037523,2.049483060836792,0.0,0.0,-0.0021164531353861094,-0.0030080799479037523,0.0,0.0,0.0,0.0,0.0,0.0,0.0,0.0,0.0,0.0,0.0,1.2289581298828125,0.0,0.0,0.0,0.0,0.0,1.2289581298828125,-0.4224652945995331,0.3323102593421936,11.717964172363281,-0.036037180572748184,-0.028333045542240143,0.024564076215028763,-0.01325727067887783,-0.013889112509787083,-0.060313332825899124,0.006078440696001053,-0.0716685801744461,-0.5921977758407593,-0.11165381968021393,-0.0002463480632286519,11.730284690856934,7.096883296966553,4.633402347564697,1848.0,1661.0,0.0,0.0,0.04266386479139328,-0.0018989521777257323,0.1354067623615265,-0.01897341012954712,0.04741975665092468,0.2902604639530182,0.39213109016418457,0.12188223749399185,0.22330763936042786,0.05124257504940033,-0.005867621395736933,-0.0002463480341248214,0.6045591235160828,0.23172609508037567,0.7497804760932922,2,0.0,1116480642,795,794
827477062,3,392,11024,5446,421484951,421485,415124,680,-6454,7700,7375,37,560,-1160,30.3125,-0.10740027576684952,-0.03561747074127197,0.9613945484161377,29.434667587280273,0.399990439414978,6.654141426086426,-1.8103389739990234,2.0859217643737793,24.744489669799805,1505,1500,1370,1500,2000,1000,1000,1000,1411,1564,1481,1840,1675,1,1,1,1,1,1,1,0,1,1,0,0,stabilized_mix,-0.21256306767463684,-0.4811044931411743,1.6996769905090332,0.0012597502209246159,0.00017609934729989618,2.054393768310547,0.0,0.0,-0.0012597502209246159,-0.00017609934729989618,0.0,0.0,0.0,0.0,0.0,0.0,0.0,0.0,0.0,0.0,0.0,1.2289581298828125,0.0,0.0,0.0,0.0,0.0,1.2289581298828125,-0.4269607961177826,0.37032726407051086,11.71666145324707,-0.03642436861991882,-0.03157543018460274,0.034059569239616394,-0.022136265411973,-0.0007975526968948543,-0.07905104011297226,0.030121462419629097,-0.10121855139732361,-0.592769980430603,-0.05806833878159523,-0.00022779341088607907,11.730284690856934,7.0041093826293945,4.726175308227539,1840.0,1675.0,0.0,0.0,0.0610855408012867,-0.01685827225446701,0.1344567984342575,-0.031679101288318634,0.06557608395814896,0.29016831517219543,0.513731837272644,0.00698115024715662,0.11613667756319046,0.0723089873790741,-0.028998177498579025,-0.00022779339633416384,0.5840291976928711,0.32699134945869446,0.7497804760932922,2,0.0,81778740,795,794
827477062,3,392,11025,5446,421488984,421489,415128,682,9319,9101,-2713,-170,-415,-735,30.328125,0.1662244349718094,-0.12385371327400208,0.9262402057647705,23.298625946044922,6.4677958488464355,2.2599315643310547,-1.8070002794265747,2.1190061569213867,24.783761978149414,1505,1500,1370,1500,2000,1000,1000,1000,1411,1547,1491,1834,1684,1,1,1,1,1,1,1,0,1,1,0,0,stabilized_mix,-0.1453065276145935,-0.6520845890045166,1.7421737909317017,0.00028876858414150774,-0.002754274755716324,2.059297800064087,0.0,0.0,-0.00028876858414150774,0.002754274755716324,0.0,0.0,0.0,0.0,0.0,0.0,0.0,0.0,0.0,0.0,0.0,1.2311327457427979,0.0,0.0,0.0,0.0,0.0,1.2311327457427979,-0.43361976742744446,0.36954301595687866,11.713464736938477,-0.037002019584178925,-0.031516533344984055,0.02823765203356743,-0.011854040436446667,-0.012869267724454403,-0.06256332248449326,0.014523566700518131,-0.07412892580032349,-0.5941408276557922,-0.0197216235101223,-0.0002148518105968833,11.727312088012695,6.937914848327637,4.7893967628479,1834.0,1684.0,0.0,0.0,0.04445573315024376,-0.007396213710308075,0.13515879213809967,-0.016960948705673218,0.054486051201820374,0.29106056690216064,0.4066377282142639,0.11288433521986008,0.0394432470202446,0.05298510193824768,-0.01401336770504713,-0.00021485185425262898,0.5958765149116516,0.23966678977012634,0.7495904564857483,2,0.0,2868098691,795,794
827477062,3,392,11026,5446,421493021,421493,415132,678,-7148,6439,-2362,-308,758,-917,30.296875,-0.034472957253456116,0.13940782845020294,0.9374940395355225,30.461841583251953,3.9172348976135254,13.803422927856445,-1.9431874752044678,2.0695436000823975,24.808320999145508,1505,1500,1370,1500,2000,1000,1000,1000,1411,1565,1491,1850,1658,1,1,1,1,1,1,1,0,1,1,0,0,stabilized_mix,-0.2705608904361725,-0.5506299138069153,1.6950544118881226,-0.0006807880126871169,-0.005240410100668669,2.0640907287597656,0.0,0.0,0.0006807880126871169,0.005240410100668669,0.0,0.0,0.0,0.0,0.0,0.0,0.0,0.0,0.0,0.0,0.0,1.2311327457427979,0.0,0.0,0.0,0.0,0.0,1.2311327457427979,-0.42350253462791443,0.39739641547203064,11.712923049926758,-0.03614111989736557,-0.03389289230108261,0.028781665489077568,-0.021655462682247162,-0.007813699543476105,-0.0818365216255188,0.01422424241900444,-0.10241179913282394,-0.5949981212615967,-0.12045758962631226,-0.0002504094736650586,11.727312088012695,7.115703582763672,4.611608505249023,1850.0,1658.0,0.0,0.0,0.06114542484283447,-0.006337163038551807,0.1350998431444168,-0.030983280390501022,0.05539662390947342,0.2910628616809845,0.5316594243049622,0.06836864352226257,0.2409151792526245,0.07313992083072662,-0.013690264895558357,-0.00025040950276888907,0.5898686647415161,0.3308328092098236,0.7495904564857483,2,0.0,3640899480,795,794
827477062,3,392,11027,5446,421496043,421497,415135,668,5268,8175,195,-89,-313,-977,30.21875,0.14151477813720703,-0.11845912039279938,0.927706241607666,27.696340560913086,5.724344253540039,0.7935833930969238,-2.0069384574890137,2.1579368114471436,24.827322006225586,1505,1500,1370,1500,2000,1000,1000,1000,1411,1557,1488,1833,1687,1,1,1,1,1,1,1,0,1,1,0,0,stabilized_mix,-0.08216600865125656,-0.5317487120628357,1.7118399143218994,-0.0012737511424347758,-0.007349442690610886,2.0677082538604736,0.0,0.0,0.0012737511424347758,0.007349442690610886,0.0,0.0,0.0,0.0,0.0,0.0,0.0,0.0,0.0,0.0,0.0,1.2311327457427979,0.0,0.0,0.0,0.0,0.0,1.2311327457427979,-0.4415825307369232,0.4104052782058716,11.711807250976562,-0.037686195224523544,-0.035002827644348145,0.030938882380723953,-0.0159293282777071,-0.01140508521348238,-0.07439250499010086,0.0191783644258976,-0.09027717262506485,-0.5956613421440125,-0.006925321649760008,-0.0002109053311869502,11.727312088012695,6.918182849884033,4.809129238128662,1833.0,1687.0,0.0,0.0,0.05418604612350464,-0.009970840997993946,0.1349470168352127,-0.022791504859924316,0.05961725860834122,0.29146459698677063,0.4833923280239105,0.09990865737199783,0.013850643299520016,0.06449881941080093,-0.01847955957055092,-0.0002109053311869502,0.587708055973053,0.2917466461658478,0.7495904564857483,2,0.0,1491600834,796,795
827477062,3,392,11028,5446,421500128,421501,415139,672,-2286,7243,-4989,-379,525,-963,30.25,0.05281240493059158,0.03583734855055809,0.9452179670333862,31.230588912963867,6.134860515594482,13.222773551940918,-2.1556243896484375,2.1300289630889893,24.85624122619629,1505,1500,1370,1500,2000,1000,1000,1000,1411,1564,1494,1849,1659,1,1,1,1,1,1,1,0,1,1,0,0,stabilized_mix,-0.1870766431093216,-0.45299026370048523,1.6771059036254883,-0.0020047433208674192,-0.00872029084712267,2.072502613067627,0.0,0.0,0.0020047433208674192,0.00872029084712267,0.0,0.0,0.0,0.0,0.0,0.0,0.0,0.0,0.0,0.0,0.0,1.232546091079712,0.0,0.0,0.0,0.0,0.0,1.232546091079712,-0.43580248951911926,0.4407321810722351,11.70898723602295,-0.03720231354236603,-0.03759673237800598,0.027786972001194954,-0.01896500773727894,-0.012237886898219585,-0.0839204415678978,0.008925937116146088,-0.10120882838964462,-0.5966708660125732,-0.11539046466350555,-0.00024922145530581474,11.725379943847656,7.108797073364258,4.61658239364624,1849.0,1659.0,0.0,0.0,0.06022200733423233,-0.0028751601930707693,0.1353144645690918,-0.027129974216222763,0.05348037928342819,0.2916994094848633,0.5450766086578369,0.10707351565361023,0.2307809293270111,0.07227183133363724,-0.00859067402780056,-0.00024922145530581474,0.59034663438797,0.3269600570201874,0.7494669556617737,2,0.0,4174772783,796,795
827477062,3,392,11029,5446,421504164,421505,415143,682,-114,8164,4217,-83,225,-1108,30.328125,-0.03386538475751877,-0.04566881060600281,0.9365705251693726,32.446937561035156,4.0279221534729,4.085007667541504,-2.281015634536743,2.2014012336730957,24.879701614379883,1505,1500,1370,1500,2000,1000,1000,1000,1411,1567,1485,1837,1679,1,1,1,1,1,1,1,0,1,1,0,0,stabilized_mix,-0.08275077491998672,-0.38023099303245544,1.6759462356567383,-0.002480032155290246,-0.010847391560673714,2.077164888381958,0.0,0.0,0.002480032155290246,0.010847391560673714,0.0,0.0,0.0,0.0,0.0,0.0,0.0,0.0,0.0,0.0,0.0,1.232546091079712,0.0,0.0,0.0,0.0,0.0,1.232546091079712,-0.45039817690849304,0.4663340747356415,11.707442283630371,-0.038452137261629105,-0.039781831204891205,0.03366485610604286,-0.01889103278517723,-0.008038678206503391,-0.08719706535339355,0.0234962310642004,-0.1058189794421196,-0.5974897742271423,-0.035648416727781296,-0.00022159834043122828,11.725379943847656,6.970681190490723,4.754697799682617,1837.0,1679.0,0.0,0.0,0.06353309005498886,-0.012326052412390709,0.13470366597175598,-0.02702416107058525,0.06475836038589478,0.2919674515724182,0.5663058757781982,0.07030050456523895,0.07129683345556259,0.07555185258388519,-0.022601090371608734,-0.0002215983549831435,0.5788843631744385,0.3417989909648895,0.7494669556617737,2,0.0,4146008733,796,795
827477062,3,392,11030,5446,421508198,421509,415147,692,1111,7086,-1208,-296,10,-1168,30.40625,0.13448068499565125,-0.09372954815626144,0.9531201720237732,33.67152786254883,7.820851802825928,6.962339401245117,-2.4516522884368896,2.24772047996521,24.915300369262695,1505,1500,1370,1500,2000,1000,1000,1000,1411,1569,1493,1841,1672,1,1,1,1,1,1,1,0,1,1,0,0,stabilized_mix,0.007482998073101044,-0.24480734765529633,1.625748872756958,-0.002622848842293024,-0.011905123479664326,2.081740140914917,0.0,0.0,0.002622848842293024,0.011905123479664326,0.0,0.0,0.0,0.0,0.0,0.0,0.0,0.0,0.0,0.0,0.0,1.2334647178649902,0.0,0.0,0.0,0.0,0.0,1.2334647178649902,-0.4598208963871002,0.5011293292045593,11.704380989074707,-0.03926603123545647,-0.04275645688176155,0.030034838244318962,-0.018186824396252632,-0.015613491646945477,-0.09050657600164413,0.010656606405973434,-0.10760177671909332,-0.5987324118614197,-0.060757871717214584,-0.0002308215480297804,11.724124908447266,7.016170024871826,4.707954406738281,1841.0,1672.0,0.0,0.0,0.06406458467245102,-0.003811878152191639,0.1352432817220688,-0.026014098897576332,0.05776060372591019,0.2923412322998047,0.5876790285110474,0.13649961352348328,0.12151574343442917,0.07681161910295486,-0.010248313657939434,-0.00023082159168552607,0.5842224359512329,0.3475354015827179,0.749386727809906,2,0.0,4047525820,796,795
827477062,3,392,11031,5446,421512226,421513,415151,680,4222,7861,-3838,-245,433,-1036,30.3125,0.09430842846632004,-0.1024559885263443,0.9296738505363464,33.147159576416016,6.350988864898682,10.467537879943848,-2.6013667583465576,2.28239107131958,24.945810317993164,1505,1500,1370,1500,2000,1000,1000,1000,1411,1565,1492,1846,1664,1,1,1,1,1,1,1,0,1,1,0,0,stabilized_mix,0.0005397051572799683,-0.19904063642024994,1.6555876731872559,-0.0027980965096503496,-0.013228997588157654,2.0862741470336914,0.0,0.0,0.0027980965096503496,0.013228997588157654,0.0,0.0,0.0,0.0,0.0,0.0,0.0,0.0,0.0,0.0,0.0,1.2334647178649902,0.0,0.0,0.0,0.0,0.0,1.2334647178649902,-0.4669097661972046,0.5316985249519348,11.702752113342285,-0.03987628594040871,-0.04536636918783188,0.03110589273273945,-0.01398945227265358,-0.012671041302382946,-0.08909333497285843,0.012867461889982224,-0.10170568525791168,-0.5997973680496216,-0.09134650230407715,-0.00024190032854676247,11.724124908447266,7.071563720703125,4.652560710906982,1846.0,1664.0,0.0,0.0,0.06067955121397972,-0.0054418668150901794,0.13515721261501312,-0.020010706037282944,0.059856776148080826,0.29284369945526123,0.5785270929336548,0.1108456626534462,0.1826930046081543,0.07261763513088226,-0.01238202303647995,-0.0002419003430986777,0.5821829438209534,0.32855966687202454,0.749386727809906,2,0.0,1618729947,796,795
827477062,3,392,11042,5456,421556637,421557,415195,704,1313,4957,-6191,-670,224,-1594,30.5,0.11030247807502747,-0.039602555334568024,0.9201091527938843,50.929874420166016,15.33167839050293,9.940503120422363,-4.584701061248779,2.9631543159484863,25.326623916625977,1505,1500,1370,1500,2000,1000,1000,1000,1411,1591,1502,1847,1662,1,1,1,1,1,1,1,0,1,1,0,0,stabilized_mix,0.105679452419281,0.013772738166153431,1.5659886598587036,0.0020073687192052603,-0.010164270177483559,2.1330325603485107,0.0,0.0,-0.0020073687192052603,0.010164270177483559,0.0,0.0,0.0,0.0,0.0,0.0,0.0,0.0,0.0,0.0,0.0,1.2373265027999878,0.0,0.0,0.0,0.0,0.0,1.2373265027999878,-0.6057910323143005,0.9354673027992249,11.665730476379395,-0.051882509142160416,-0.07991091161966324,0.03606259450316429,-0.00913185067474842,-0.030762743204832077,-0.1372005194425583,-0.0028654050547629595,-0.14310096204280853,-0.6130902767181396,-0.08674725145101547,-0.00024494307581335306,11.71884536743164,7.084137916564941,4.634706974029541,1847.0,1662.0,0.0,0.0,0.08445718139410019,0.006216656882315874,0.13601410388946533,-0.013056688010692596,0.06900745630264282,0.2963898777961731,0.8888939619064331,0.2675882577896118,0.17349450290203094,0.10195524990558624,0.002742133568972349,-0.0002449431049171835,0.5589289665222168,0.4615059792995453,0.7490492463111877,2,0.0,1337800044,796,795
827477062,3,392,11043,5456,421560577,421561,415199,688,895,6603,-1445,-412,380,-1711,30.375,0.015991300344467163,-0.11135979741811752,0.8975656032562256,52.655982971191406,12.436210632324219,6.628571033477783,-4.817862033843994,3.021671772003174,25.347597122192383,1505,1500,1370,1500,2000,1000,1000,1000,1411,1594,1493,1843,1669,1,1,1,1,1,1,1,0,1,1,0,0,stabilized_mix,0.0942048579454422,0.11401401460170746,1.580100655555725,0.0023725933860987425,-0.01025891862809658,2.137059211730957,0.0,0.0,-0.0023725933860987425,0.01025891862809658,0.0,0.0,0.0,0.0,0.0,0.0,0.0,0.0,0.0,0.0,0.0,1.2373265027999878,0.0,0.0,0.0,0.0,0.0,1.2373265027999878,-0.6177434921264648,0.9828798174858093,11.661203384399414,-0.05292477831244469,-0.08397037535905838,0.04186271131038666,-0.007914303801953793,-0.024969926103949547,-0.14188143610954285,0.011251996271312237,-0.14808166027069092,-0.6138224005699158,-0.05784519389271736,-0.0002350836293771863,11.71884536743164,7.0348405838012695,4.684004306793213,1843.0,1669.0,0.0,0.0,0.0879625454545021,-0.00287444400601089,0.13523432612419128,-0.011315882205963135,0.08004172891378403,0.29636240005493164,0.9190202951431274,0.21705281734466553,0.11569038778543472,0.10547830909490585,-0.010759854689240456,-0.00023508364392910153,0.5469264388084412,0.4774532914161682,0.7490492463111877,2,0.0,3835288831,796,795
827477062,3,392,11044,5456,421564614,421565,415203,700,-235,6214,-592,-518,52,-1819,30.46875,0.14275304973125458,-0.09668256342411041,0.9244222044944763,53.81785583496094,15.904935836791992,4.452325820922852,-5.04489278793335,3.113851547241211,25.376089096069336,1505,1500,1370,1500,2000,1000,1000,1000,1411,1595,1497,1840,1674,1,1,1,1,1,1,1,0,1,1,0,0,stabilized_mix,0.15645819902420044,0.16410018503665924,1.5403532981872559,0.002576334634795785,-0.010092835873365402,2.1411468982696533,0.0,0.0,-0.002576334634795785,0.010092835873365402,0.0,0.0,0.0,0.0,0.0,0.0,0.0,0.0,0.0,0.0,0.0,1.2373265027999878,0.0,0.0,0.0,0.0,0.0,1.2373265027999878,-0.636570155620575,1.0289900302886963,11.65621280670166,-0.05455789715051651,-0.08791966736316681,0.04102851450443268,-0.006396331358700991,-0.031945668160915375,-0.14503398537635803,0.005209706723690033,-0.14995543658733368,-0.6148169636726379,-0.03885387256741524,-0.0002287847746629268,11.71884536743164,7.0033464431762695,4.715498447418213,1840.0,1674.0,0.0,0.0,0.08882535994052887,0.0011447059223428369,0.13558977842330933,-0.009145516902208328,0.0784255862236023,0.2965005040168762,0.9392987489700317,0.2775934934616089,0.07770774513483047,0.1068030372262001,-0.004980525001883507,-0.00022878478921484202,0.5485779047012329,0.4834497570991516,0.7490492463111877,2,0.0,3359998627,796,795
827477062,3,392,11045,5456,421568645,421569,415207,684,3980,10119,-2304,-588,128,-1752,30.34375,0.08808663487434387,-0.17704859375953674,0.9561823010444641,53.2677001953125,15.63611125946045,6.207118988037109,-5.278804779052734,3.126993179321289,25.400022506713867,1505,1500,1370,1500,2000,1000,1000,1000,1411,1590,1497,1842,1669,1,1,1,1,1,1,1,0,1,1,0,0,stabilized_mix,0.04384410008788109,0.22704122960567474,1.5737967491149902,0.0033314081374555826,-0.007614166475832462,2.145315647125244,0.0,0.0,-0.0033314081374555826,0.007614166475832462,0.0,0.0,0.0,0.0,0.0,0.0,0.0,0.0,0.0,0.0,0.0,1.237902045249939,0.0,0.0,0.0,0.0,0.0,1.237902045249939,-0.639211118221283,1.0764824151992798,11.650986671447754,-0.05480831116437912,-0.09199495613574982,0.04081400856375694,-0.000418611743953079,-0.031370289623737335,-0.14355076849460602,0.004107430577278137,-0.14185740053653717,-0.6156523823738098,-0.054167330265045166,-0.00023443682584911585,11.718058586120605,7.031213283538818,4.686844825744629,1842.0,1669.0,0.0,0.0,0.08402849733829498,0.0016272355569526553,0.13562487065792084,-0.0005984976887702942,0.0781034454703331,0.2969147861003876,0.9296967387199402,0.27290162444114685,0.10833466053009033,0.10106842964887619,-0.003931157756596804,-0.00023443688405677676,0.547730565071106,0.457522451877594,0.7489989995956421,2,0.0,3663551248,796,795
827477062,3,392,11046,5456,421572676,421573,415211,668,-562,9257,3378,-502,306,-1762,30.21875,-0.03390159457921982,-0.0037032319232821465,0.9335157871246338,55.924583435058594,15.187911033630371,6.031347274780273,-5.499587059020996,3.170289993286133,25.41590690612793,1505,1500,1370,1500,2000,1000,1000,1000,1411,1595,1496,1842,1670,1,1,1,1,1,1,1,0,1,1,0,0,stabilized_mix,-0.00251137837767601,0.2196963131427765,1.5744163990020752,0.003302869154140353,-0.0069169411435723305,2.1494009494781494,0.0,0.0,-0.003302869154140353,0.0069169411435723305,0.0,0.0,0.0,0.0,0.0,0.0,0.0,0.0,0.0,0.0,0.0,1.237902045249939,0.0,0.0,0.0,0.0,0.0,1.237902045249939,-0.6480528116226196,1.1213234663009644,11.646267890930176,-0.05558735132217407,-0.09583856165409088,0.04267366975545883,-0.000955997675191611,-0.030506057664752007,-0.15076418220996857,0.0067156474106013775,-0.14973145723342896,-0.6162068843841553,-0.052633434534072876,-0.00023409409914165735,11.718058586120605,7.029499530792236,4.688558578491211,1842.0,1670.0,0.0,0.0,0.08876774460077286,0.0001622611453058198,0.13550226390361786,-0.0013668090105056763,0.08156569302082062,0.2967500686645508,0.9760680794715881,0.2650790512561798,0.10526686906814575,0.10663755238056183,-0.006419984623789787,-0.00023409409914165735,0.5442932844161987,0.4827331006526947,0.7489989995956421,2,0.0,116092134,797,796
827477062,3,392,11047,5456,421576713,421577,415215,702,46,8618,1951,-516,-46,-2124,30.484375,0.07145094871520996,-0.21186450123786926,0.9997898936271667,57.9957389831543,16.133258819580078,0.5093830227851868,-5.798638343811035,3.250432014465332,25.429594039916992,1504,1500,1370,1500,2000,1000,1000,1000,1411,1599,1492,1835,1682,1,1,1,1,1,1,1,0,1,1,0,0,stabilized_mix,0.05120707303285599,0.4221144914627075,1.5300401449203491,0.0034963898360729218,-0.005032955203205347,2.1535911560058594,0.0,0.0,-0.0034963898360729218,0.005032955203205347,0.0,0.0,0.0,0.0,0.0,0.0,0.0,0.0,0.0,0.0,0.0,1.2382762432098389,0.0,0.0,0.0,0.0,0.0,1.2382762432098389,-0.6643885970115662,1.181950330734253,11.638834953308105,-0.057021889835596085,-0.10104195773601532,0.04627740755677223,0.00015991053078323603,-0.03243854269385338,-0.15639972686767578,0.013351157307624817,-0.15605828166007996,-0.61668461561203,-0.004445205442607403,-0.00021739539806731045,11.717546463012695,6.9457502365112305,4.771796226501465,1835.0,1682.0,0.0,0.0,0.0927606076002121,-0.003980768378823996,0.1351175159215927,0.0002286173403263092,0.08835902810096741,0.296426385641098,1.012216567993164,0.2815784811973572,0.008890410885214806,0.11110272258520126,-0.012750081717967987,-0.0002173954271711409,0.537079930305481,0.5029682517051697,0.7489662170410156,2,0.0,2724798870,797,796
827477062,3,392,11048,5456,421580748,421581,415219,696,4706,5389,-4440,-606,-77,-1723,30.4375,0.06753756105899811,-0.09472716599702835,0.9049704074859619,55.33838653564453,17.69317626953125,4.541801929473877,-5.977076053619385,3.270521640777588,25.453073501586914,1504,1500,1370,1500,2000,1000,1000,1000,1411,1588,1498,1840,1673,1,1,1,1,1,1,1,0,1,1,0,0,stabilized_mix,-0.045596830546855927,0.28368741273880005,1.6086854934692383,0.0032116377260535955,-0.004136207979172468,2.157822608947754,0.0,0.0,-0.0032116377260535955,0.004136207979172468,0.0,0.0,0.0,0.0,0.0,0.0,0.0,0.0,0.0,0.0,0.0,1.2382762432098389,0.0,0.0,0.0,0.0,0.0,1.2382762432098389,-0.668490469455719,1.2181671857833862,11.634865760803223,-0.05739269778132439,-0.10414911806583405,0.04257886856794357,0.008963349275290966,-0.035483043640851974,-0.14917857944965363,0.0030405279248952866,-0.13836930692195892,-0.6175042390823364,-0.03963469713926315,-0.00022999863722361624,11.717546463012695,7.0087666511535645,4.708780288696289,1840.0,1673.0,0.0,0.0,0.08195873349905014,0.0022331050131469965,0.13567125797271729,0.012814350426197052,0.08151528239250183,0.2971508800983429,0.9658370614051819,0.3088041841983795,0.0792693942785263,0.09859506040811539,-0.002911350456997752,-0.00022999862267170101,0.5413429141044617,0.44634535908699036,0.7489662170410156,2,0.0,2544022182,797,796
827477062,3,392,11049,5456,421584779,421585,415223,696,-6404,3994,2827,-632,413,-2050,30.4375,-0.06928591430187225,0.011092916131019592,0.8864651322364807,61.83991622924805,16.368215560913086,4.376640796661377,-6.255336284637451,3.3353476524353027,25.45477867126465,1505,1500,1370,1500,2000,1000,1000,1000,1411,1604,1494,1840,1673,1,1,1,1,1,1,1,0,1,1,0,0,stabilized_mix,-0.025415513664484024,0.38519221544265747,1.5961538553237915,0.0031792407389730215,-0.002909682923927903,2.16202449798584,0.0,0.0,-0.0031792407389730215,0.002909682923927903,0.0,0.0,0.0,0.0,0.0,0.0,0.0,0.0,0.0,0.0,0.0,1.2382762432098389,0.0,0.0,0.0,0.0,0.0,1.2382762432098389,-0.6817259788513184,1.2745747566223145,11.628052711486816,-0.05856066569685936,-0.10899053514003754,0.046496715396642685,0.002579675056040287,-0.032946180552244186,-0.1668606847524643,0.009162643924355507,-0.16267813742160797,-0.6175637245178223,-0.03819339722394943,-0.0002295150188729167,11.717546463012695,7.006348609924316,4.711198329925537,1840.0,1673.0,0.0,0.0,0.09649086743593216,-0.0010314260143786669,0.13538798689842224,0.0036880485713481903,0.08868305385112762,0.2961995601654053,1.0793101787567139,0.28567925095558167,0.07638679444789886,0.11577480286359787,-0.008740969002246857,-0.00022951498976908624,0.5375538468360901,0.5241190195083618,0.7489662170410156,2,0.0,233263145,797,796
827477062,3,392,11050,5456,421588810,421589,415227,690,7307,7294,-5018,-424,-400,-1981,30.390625,0.18404856324195862,-0.26688352227211,0.9208363890647888,57.35041046142578,16.515050888061523,-4.323817729949951,-6.469265937805176,3.4370851516723633,25.462602615356445,1504,1500,1369,1500,2000,1000,1000,1000,1410,1591,1486,1829,1690,1,1,1,1,1,1,1,0,1,1,0,0,stabilized_mix,0.07281415164470673,0.3700456917285919,1.612873911857605,0.0030941911973059177,-0.0008520445553585887,2.166354179382324,0.0,0.0,-0.0030941911973059177,0.0008520445553585887,0.0,0.0,0.0,0.0,0.0,0.0,0.0,0.0,0.0,0.0,0.0,1.2358592748641968,0.0,0.0,0.0,0.0,0.0,1.2358592748641968,-0.7026940584182739,1.3182156085968018,11.625268936157227,-0.060371946543455124,-0.1127060204744339,0.05132857710123062,0.013646307401359081,-0.033128805458545685,-0.15460139513015747,0.022181933745741844,-0.1423616111278534,-0.6178368330001831,0.03773242607712746,-0.00020303652854636312,11.720850944519043,6.875608444213867,4.845242977142334,1829.0,1690.0,0.0,0.0,0.08511517941951752,-0.010195200331509113,0.13461798429489136,0.01951444521546364,0.09822501987218857,0.29630354046821594,1.0009534358978271,0.28824201226234436,-0.07546485215425491,0.1014494001865387,-0.02123182825744152,-0.00020303654309827834,0.5210615992546082,0.4591376781463623,0.7491774559020996,2,0.0,931485655,797,796
827477062,3,392,11061,5466,421632217,421633,415270,680,3381,10803,1678,-656,-74,-2337,30.3125,0.09057621657848358,-0.2596897780895233,0.9886325001716614,65.86507415771484,21.817584991455078,-0.20022910833358765,-8.85964584350586,4.177888870239258,25.62074851989746,1505,1500,1370,1500,2000,1000,1000,1000,1411,1585,1491,1836,1683,1,1,1,1,1,1,1,0,1,1,0,0,stabilized_mix,0.0761597529053688,0.3489239811897278,1.6667362451553345,0.004243328236043453,0.010798417031764984,2.2138426303863525,0.0,0.0,-0.004243328236043453,-0.010798417031764984,0.0,0.0,0.0,0.0,0.0,0.0,0.0,0.0,0.0,0.0,0.0,1.230514407157898,0.0,0.0,-0.0,0.0,0.0,1.230514407157898,-0.8544350862503052,1.8015064001083374,11.557429313659668,-0.07379525899887085,-0.15421579778194427,0.058354705572128296,0.04376918449997902,-0.043690282851457596,-0.17767132818698883,0.014857928268611431,-0.1334729790687561,-0.6233571767807007,0.0017473285552114248,-0.00021756344358436763,11.728157043457031,6.951895713806152,4.776261329650879,1836.0,1683.0,0.0,0.0,0.07973622530698776,-0.005649310536682606,0.1350364238023758,0.06261162459850311,0.11186376214027405,0.2954695224761963,1.1495623588562012,0.3807886838912964,-0.0034946571104228497,0.09521345049142838,-0.014248603954911232,-0.00021756344358436763,0.4777851104736328,0.4306466579437256,0.7496444582939148,2,0.0,2987439745,797,796
827477062,3,392,11062,5466,421636233,421637,415274,700,5456,8361,-1708,-842,-37,-1956,30.46875,0.05699911341071129,-0.05025496333837509,0.9125726222991943,64.07276916503906,23.336511611938477,5.576011657714844,-9.028076171875,4.190279006958008,25.644495010375977,1505,1500,1370,1500,2000,1000,1000,1000,1411,1575,1499,1843,1669,1,1,1,1,1,1,1,0,1,1,0,0,stabilized_mix,-0.046065691858530045,0.1786976307630539,1.7385882139205933,0.00396319106221199,0.011418906971812248,2.21844744682312,0.0,0.0,-0.00396319106221199,-0.011418906971812248,0.0,0.0,0.0,0.0,0.0,0.0,0.0,0.0,0.0,0.0,0.0,1.230514407157898,0.0,0.0,-0.0,0.0,0.0,1.230514407157898,-0.8569645285606384,1.835444450378418,11.551901817321777,-0.07404821366071701,-0.1571449339389801,0.053487930446863174,0.051434941589832306,-0.046642642468214035,-0.1727871596813202,0.0011001413222402334,-0.117983877658844,-0.624186098575592,-0.048659879714250565,-0.00023549605975858867,11.728157043457031,7.041559219360352,4.686598300933838,1843.0,1669.0,0.0,0.0,0.0700577050447464,0.0029277517460286617,0.1356932669878006,0.07356850802898407,0.10274459421634674,0.2964814603328705,1.1182807683944702,0.4072989523410797,0.09731975942850113,0.08421894907951355,-0.0010571307502686977,-0.0002354960743105039,0.47681641578674316,0.3809190094470978,0.7496444582939148,2,0.0,1314610995,797,796
827477062,3,392,11063,5466,421640229,421641,415278,680,-7275,5807,5005,-673,556,-2416,30.3125,-0.08499355614185333,-0.03561016917228699,0.9291017651557922,69.99708557128906,20.704326629638672,6.070684432983398,-9.317508697509766,4.242165565490723,25.648832321166992,1505,1500,1370,1500,2000,1000,1000,1000,1411,1588,1494,1844,1668,1,1,1,1,1,1,1,0,1,1,0,0,stabilized_mix,-0.08447948098182678,0.36246272921562195,1.6742417812347412,0.004192512948065996,0.01311783492565155,2.2230064868927,0.0,0.0,-0.004192512948065996,-0.01311783492565155,0.0,0.0,0.0,0.0,0.0,0.0,0.0,0.0,0.0,0.0,0.0,1.230813980102539,0.0,0.0,-0.0,0.0,0.0,1.230813980102539,-0.8675264716148376,1.8935834169387817,11.541308403015137,-0.07502599060535431,-0.16217173635959625,0.05801091715693474,0.04662182554602623,-0.04149232432246208,-0.18895456194877625,0.009656421840190887,-0.138963520526886,-0.6243374943733215,-0.05297671630978584,-0.00023705995408818126,11.727747917175293,7.049173831939697,4.678574085235596,1844.0,1668.0,0.0,0.0,0.08279029279947281,-0.002052165102213621,0.13531754910945892,0.06668712198734283,0.11111793667078018,0.2953088879585266,1.2216795682907104,0.3613586723804474,0.10595343261957169,0.0991019457578659,-0.009253319352865219,-0.00023705996864009649,0.47586479783058167,0.44824981689453125,0.7496182918548584,2,0.0,1207549294,797,796
827477062,3,392,11064,5466,421644263,421645,415282,686,7848,9742,-2188,-717,-514,-2086,30.359375,0.12316307425498962,-0.23447823524475098,0.9650784134864807,63.271156311035156,23.527027130126953,-2.958117961883545,-9.458415031433105,4.316528797149658,25.671483993530273,1505,1500,1370,1500,2000,1000,1000,1000,1411,1572,1490,1832,1688,1,1,1,1,1,1,1,0,1,1,0,0,stabilized_mix,-0.010951831936836243,0.25726479291915894,1.7056217193603516,0.0037102303467690945,0.013502562418580055,2.2277042865753174,0.0,0.0,-0.0037102303467690945,-0.013502562418580055,0.0,0.0,0.0,0.0,0.0,0.0,0.0,0.0,0.0,0.0,0.0,1.230813980102539,0.0,0.0,-0.0,0.0,0.0,1.230813980102539,-0.8827053308486938,1.9217742681503296,11.535496711730957,-0.07637196034193039,-0.1646079421043396,0.060006361454725266,0.05910519137978554,-0.04699522256851196,-0.17061008512973785,0.015996504575014114,-0.112450510263443,-0.6251282095909119,0.025814449414610863,-0.00020975983352400362,11.727747917175293,6.912672519683838,4.815074443817139,1832.0,1688.0,0.0,0.0,0.06741487234830856,-0.0070589217357337475,0.1350112110376358,0.08452453464269638,0.11532139778137207,0.2958477735519409,1.1042900085449219,0.41062408685684204,-0.051628898829221725,0.08028341084718704,-0.015379771590232849,-0.00020975980442017317,0.44745948910713196,0.3631313741207123,0.7496182918548584,2,0.0,2050768253,797,796
827477062,3,392,11065,5466,421648297,421649,415286,680,-3625,5232,-7722,-904,416,-1977,30.3125,0.0797656998038292,0.13153105974197388,0.8866968750953674,66.57172393798828,23.521060943603516,9.38003158569336,-9.63885498046875,4.34421968460083,25.683252334594727,1505,1500,1370,1500,2000,1000,1000,1000,1411,1573,1502,1848,1660,1,1,1,1,1,1,1,0,1,1,0,0,stabilized_mix,-0.11435961723327637,0.1201111376285553,1.7168381214141846,0.00355695397593081,0.014916855841875076,2.2322614192962646,0.0,0.0,-0.00355695397593081,-0.014916855841875076,0.0,0.0,0.0,0.0,0.0,0.0,0.0,0.0,0.0,0.0,0.0,1.2323390245437622,0.0,0.0,0.0,0.0,0.0,1.2323390245437622,-0.8881991505622864,1.95767343044281,11.526915550231934,-0.07690240442752838,-0.1677418351173401,0.054267000406980515,0.05954685062170029,-0.04700346663594246,-0.17963676154613495,-0.002770493272691965,-0.11465281248092651,-0.6255390048027039,-0.08185621351003647,-0.0002475883229635656,11.725663185119629,7.100773811340332,4.624890327453613,1848.0,1660.0,0.0,0.0,0.06796859949827194,0.005386190488934517,0.13585446774959564,0.08514025807380676,0.10425805300474167,0.29639554023742676,1.161895751953125,0.41051995754241943,0.16371242702007294,0.0818343535065651,0.00266264658421278,-0.0002475883229635656,0.4617232084274292,0.37021228671073914,0.7494850754737854,2,0.0,3182812669,798,797
827477062,3,392,11066,5466,421652331,421653,415290,694,-1124,6830,5039,-572,24,-2434,30.421875,0.0013582855463027954,-0.18664079904556274,0.9408594965934753,68.16462707519531,20.846206665039062,-4.539121627807617,-9.86325740814209,4.461429119110107,25.6771183013916,1505,1500,1370,1500,2000,1000,1000,1000,1411,1581,1481,1830,1690,1,1,1,1,1,1,1,0,1,1,0,0,stabilized_mix,-0.012128593400120735,0.26984137296676636,1.6690430641174316,0.0032915479969233274,0.015052912756800652,2.236875295639038,0.0,0.0,-0.0032915479969233274,-0.015052912756800652,0.0,0.0,0.0,0.0,0.0,0.0,0.0,0.0,0.0,0.0,0.0,1.2323390245437622,0.0,0.0,0.0,0.0,0.0,1.2323390245437622,-0.9121154546737671,2.002488851547241,11.517345428466797,-0.07902999222278595,-0.17161953449249268,0.06726015359163284,0.05827682092785835,-0.041717857122421265,-0.18398362398147583,0.030483080074191093,-0.1270863264799118,-0.6253248453140259,0.03961130976676941,-0.00020499966922216117,11.725663185119629,6.8878302574157715,4.837833404541016,1830.0,1690.0,0.0,0.0,0.07666188478469849,-0.016128113493323326,0.1342490315437317,0.08332644402980804,0.12899160385131836,0.29427284002304077,1.1896971464157104,0.363834947347641,-0.07922261953353882,0.09066340327262878,-0.029247766360640526,-0.00020499971287790686,0.4318403899669647,0.41015419363975525,0.7494850754737854,2,0.0,4239880615,798,797
827477062,3,392,11067,5466,421656365,421657,415294,690,5839,10361,-2991,-942,-471,-1907,30.390625,0.17614711821079254,-0.038470812141895294,0.9309600591659546,62.6904182434082,25.92072105407715,-0.9763364791870117,-9.952131271362305,4.517635822296143,25.689165115356445,1505,1500,1370,1500,2000,1000,1000,1000,1411,1563,1494,1835,1683,1,1,1,1,1,1,1,0,1,1,0,0,stabilized_mix,0.007895577698946,-0.0005502272397279739,1.6954251527786255,0.0028134463354945183,0.014977829530835152,2.2413747310638428,0.0,0.0,-0.0028134463354945183,-0.014977829530835152,0.0,0.0,0.0,0.0,0.0,0.0,0.0,0.0,0.0,0.0,0.0,1.2323390245437622,0.0,0.0,0.0,0.0,0.0,1.2323390245437622,-0.923582911491394,2.020195722579956,11.513339042663574,-0.08004710078239441,-0.17315232753753662,0.059544287621974945,0.06950577348470688,-0.051718633621931076,-0.16905932128429413,0.008794646710157394,-0.09951535612344742,-0.6257453560829163,0.00852014310657978,-0.00021602885681204498,11.725663185119629,6.942975997924805,4.782687664031982,1835.0,1683.0,0.0,0.0,0.059499580413103104,-0.0027121957391500473,0.13532626628875732,0.09935826063156128,0.11457164585590363,0.29575178027153015,1.0941542387008667,0.45240193605422974,-0.01704028621315956,0.07106829434633255,-0.008465965278446674,-0.00021602882770821452,0.42980772256851196,0.32150745391845703,0.7494850754737854,2,0.0,805954974,798,797
827477062,3,392,11068,5466,421660399,421661,415298,670,-5528,10026,1910,-834,475,-2259,30.234375,-0.0876980870962143,-0.01437598466873169,1.0070955753326416,68.18976593017578,22.259899139404297,3.0322370529174805,-10.188263893127441,4.550443172454834,25.67262840270996,1505,1500,1370,1500,2000,1000,1000,1000,1411,1574,1490,1839,1673,1,1,1,1,1,1,1,0,1,1,0,0,stabilized_mix,-0.10510958731174469,0.13131944835186005,1.6030007600784302,0.003587565151974559,0.016991719603538513,2.2457330226898193,0.0,0.0,-0.003587565151974559,-0.016991719603538513,0.0,0.0,0.0,0.0,0.0,0.0,0.0,0.0,0.0,0.0,0.0,1.2466301918029785,0.0,0.0,0.0,0.0,0.0,1.2466301918029785,-0.928726077079773,2.06408953666687,11.485225677490234,-0.08068712055683136,-0.17725226283073425,0.06295529752969742,0.06581387668848038,-0.044564612209796906,-0.1843629628419876,0.015038828365504742,-0.11635806411504745,-0.6251681447029114,-0.02646126039326191,-0.00022807030472904444,11.70612621307373,6.993414878845215,4.712711811065674,1839.0,1673.0,0.0,0.0,0.06967709213495255,-0.0062975757755339146,0.13504831492900848,0.09393177181482315,0.12070415914058685,0.29444777965545654,1.1901359558105469,0.38850852847099304,0.05292252078652382,0.08290766924619675,-0.014425951987504959,-0.00022807027562521398,0.4324498474597931,0.37569382786750793,0.7482362985610962,2,0.0,3484085156,798,797
827477062,3,392,11069,5466,421664433,421665,415302,672,4962,7303,5783,-619,-612,-2188,30.25,0.0705946832895279,-0.11103406548500061,0.950147271156311,64.48358154296875,22.926021575927734,-9.599923133850098,-10.286530494689941,4.673751354217529,25.665437698364258,1505,1500,1370,1500,2000,1000,1000,1000,1411,1568,1478,1823,1694,1,1,1,1,1,1,1,0,1,1,0,0,stabilized_mix,0.07296757400035858,-0.02434586174786091,1.6105360984802246,0.0033629548270255327,0.016468243673443794,2.2500007152557373,0.0,0.0,-0.0033629548270255327,-0.016468243673443794,0.0,0.0,0.0,0.0,0.0,0.0,0.0,0.0,0.0,0.0,0.0,1.2466301918029785,0.0,0.0,0.0,0.0,0.0,1.2466301918029785,-0.953837513923645,2.0834226608276367,11.47967529296875,-0.0828988179564476,-0.1789303719997406,0.07033055275678635,0.07125230878591537,-0.04585155472159386,-0.1742369383573532,0.034390006214380264,-0.1071244329214096,-0.6249171495437622,0.08377513289451599,-0.00018939969595521688,11.70612621307373,6.8000617027282715,4.906064987182617,1823.0,1694.0,0.0,0.0,0.06500542163848877,-0.01936565339565277,0.13422724604606628,0.10168105363845825,0.13496239483356476,0.2933677136898041,1.125450849533081,0.4001345634460449,-0.16755026578903198,0.07635477930307388,-0.03301744535565376,-0.00018939968140330166,0.40086430311203003,0.3459995687007904,0.7482362985610962,2,0.0,3539989635,798,797
827477062,3,392,11082,5478,421716867,421717,415354,678,-5326,6516,-2278,-827,103,-1606,30.296875,-0.05911203473806381,0.04759165644645691,1.051841139793396,50.167701721191406,22.466339111328125,-5.756872653961182,-11.357305526733398,5.037817478179932,25.199369430541992,1505,1500,1370,1500,2000,1000,1000,1000,1411,1512,1481,1825,1692,1,1,1,1,1,1,1,0,1,1,0,0,stabilized_mix,-0.3883371353149414,-0.38596928119659424,0.7824288606643677,-0.0051616788841784,0.004548258148133755,2.2828831672668457,0.0,0.0,0.0051616788841784,-0.004548258148133755,0.0,0.0,0.0,0.0,0.0,0.0,0.0,0.0,0.0,0.0,0.0,1.249376654624939,0.0,0.0,-0.0,0.0,0.0,1.249376654624939,-1.0276234149932861,2.2956087589263916,11.428898811340332,-0.08967333287000656,-0.19744648039340973,0.06989207118749619,0.11935441941022873,-0.04469594359397888,-0.13532598316669464,0.029774527996778488,-0.01863836497068405,-0.6086483001708984,0.050238192081451416,-0.00019544351380318403,11.702373504638672,6.828404426574707,4.873969078063965,1825.0,1692.0,0.0,0.0,0.012257770635187626,-0.01922808587551117,0.13525213301181793,0.17001071572303772,0.13482895493507385,0.28553682565689087,0.8755915760993958,0.392111599445343,-0.10047638416290283,0.013305219821631908,-0.028738200664520264,-0.00019544352835509926,0.3064649701118469,0.09633824229240417,0.7479963898658752,2,0.0,1562163756,798,797
827477062,3,392,11083,5478,421720902,421721,415358,676,4571,7328,3591,-579,-692,-1551,30.28125,-0.001369386911392212,-0.11427900195121765,1.0141576528549194,46.359580993652344,20.347808837890625,-17.776391983032227,-11.362001419067383,5.108893394470215,25.14811134338379,1505,1500,1370,1500,2000,1000,1000,1000,1411,1506,1469,1809,1704,1,1,1,1,1,1,1,0,1,1,0,0,stabilized_mix,-0.25125569105148315,-0.42598432302474976,0.800046443939209,-0.006374257151037455,0.0022799179423600435,2.283813953399658,0.0,0.0,0.006374257151037455,-0.0022799179423600435,0.0,0.0,0.0,0.0,0.0,0.0,0.0,0.0,0.0,0.0,0.0,1.249376654624939,0.0,0.0,-0.0,0.0,0.0,1.249376654624939,-1.042083501815796,2.296292781829834,11.427451133728027,-0.0909397229552269,-0.1975061148405075,0.07672997564077377,0.12410154193639755,-0.04047328606247902,-0.1249975934624672,0.04938235133886337,-0.008706505410373211,-0.606859028339386,0.15512828528881073,-0.00015810574404895306,11.702373504638672,6.6417155265808105,5.060657978057861,1809.0,1704.0,0.0,0.0,0.007075202185660601,-0.03258698806166649,0.1352573037147522,0.17673853039741516,0.1480153203010559,0.2834223508834839,0.8091273307800293,0.3551362454891205,-0.31025657057762146,0.006215524394065142,-0.04765769839286804,-0.00015810574404895306,0.2747291922569275,0.15973983705043793,0.7479963898658752,2,0.0,1894714902,798,797
