magic,version,size,sequence,dropped_records,timestamp_us,tick_ms,imu_sequence,raw_temperature,raw_accel_x,raw_accel_y,raw_accel_z,raw_gyro_x,raw_gyro_y,raw_gyro_z,temperature_c,accel_x_g,accel_y_g,accel_z_g,gyro_x_dps,gyro_y_dps,gyro_z_dps,roll_deg,pitch_deg,yaw_deg,rc_ch1_us,rc_ch2_us,rc_ch3_us,rc_ch4_us,rc_ch5_us,rc_ch6_us,rc_ch7_us,rc_ch8_us,throttle_us,servo_alpha_us,servo_beta_us,motor_upper_us,motor_lower_us,servo_alpha_feedback_us,servo_beta_feedback_us,servo_alpha_feedback_age_ms,servo_beta_feedback_age_ms,servo_alpha_feedback_sequence,servo_beta_feedback_sequence,servo_feedback_valid_mask,servo_alpha_feedback_deg,servo_alpha_feedback_tilt_deg,servo_beta_feedback_deg,servo_beta_feedback_tilt_deg,rc_armed,rc_link_ok,throttle_over_20,imu_valid,motor_output_reason,rc_link_seen,arm_switch_high,arm_throttle_low,arm_switch_seen_low,arm_switch_prev_high,imu_fault_latched,imu_fault_reason,motor_output_reason_name,acc_nav_m_s2_0,acc_nav_m_s2_1,acc_nav_m_s2_2,vel_est_m_s_0,vel_est_m_s_1,vel_est_m_s_2,vel_ref_m_s_0,vel_ref_m_s_1,vel_err_m_s_0,vel_err_m_s_1,vel_pid_out_m_s2_0,vel_pid_out_m_s2_1,vel_pid_p_m_s2_0,vel_pid_p_m_s2_1,vel_pid_i_m_s2_0,vel_pid_i_m_s2_1,vel_pid_d_m_s2_0,vel_pid_d_m_s2_1,vel_loop_active,ctrl_pos_p_m_s2_0,ctrl_pos_p_m_s2_1,ctrl_pos_p_m_s2_2,ctrl_vel_d_m_s2_0,ctrl_vel_d_m_s2_1,ctrl_vel_d_m_s2_2,ctrl_accel_out_m_s2_0,ctrl_accel_out_m_s2_1,ctrl_accel_out_m_s2_2,ctrl_force_cmd_n_0,ctrl_force_cmd_n_1,ctrl_force_cmd_n_2,ctrl_tilt_ff_rad_0,ctrl_tilt_ff_rad_1,ctrl_tilt_angle_p_rad_0,ctrl_tilt_angle_p_rad_1,ctrl_tilt_rate_d_rad_0,ctrl_tilt_rate_d_rad_1,ctrl_tilt_out_rad_0,ctrl_tilt_out_rad_1,ctrl_yaw_angle_p_rad_s,ctrl_yaw_rate_d_rad_s,ctrl_yaw_torque_cmd,ctrl_total_force_n,ctrl_motor_thrust_cmd_n_0,ctrl_motor_thrust_cmd_n_1,ctrl_motor_cmd_us_0,ctrl_motor_cmd_us_1,ctrl_velocity_integral_m_0,ctrl_velocity_integral_m_1,ctrl_desired_attitude_rpy_rad_0,ctrl_desired_attitude_rpy_rad_1,ctrl_desired_attitude_rpy_rad_2,ctrl_attitude_error_0,ctrl_attitude_error_1,ctrl_attitude_error_2,ctrl_rate_error_rad_s_0,ctrl_rate_error_rad_s_1,ctrl_rate_error_rad_s_2,ctrl_moment_cmd_n_m_0,ctrl_moment_cmd_n_m_1,ctrl_moment_cmd_n_m_2,ctrl_horizontal_command_scale,ctrl_moment_utilization,ctrl_thrust_utilization,ctrl_protection_flags,z_ref_m,ident_att_active,ident_att_axis,ident_att_mode,ident_att_reserved,ident_att_seq,ident_att_signal_rad,ident_att_signal_m_s2,ident_att_elapsed_ms,record_crc32,sector_seq,sector_index
827477062,5,428,11049,5880,200996048,200996,196478,320,-8622,15556,-2186,-477,-292,580,27.5,0.09001576900482178,0.052497684955596924,0.8532807230949402,-15.883318901062012,11.442533493041992,-8.002118110656738,1.5493860244750977,-0.3226679563522339,9.880321502685547,1576,1500,2011,1500,2000,1503,1000,1000,1940,1438,1567,1827,1815,1494,1480,506,458,8090,8127,0,,,,,1,1,1,1,1,1,1,0,1,1,0,0,stabilized_mix,0.29500699043273926,-0.6352554559707642,0.8111016154289246,0.0031332948710769415,-0.022003423422574997,-0.3002079725265503,0.0,0.12159999459981918,-0.0031332948710769415,0.14360341429710388,-0.0009320920798927546,0.08204599469900131,-0.0015666474355384707,0.07180170714855194,0.0006345553556457162,0.010244287550449371,0.0,0.0,1.0,-0.0015666474355384707,0.07180170714855194,-0.10820415616035461,0.0006345553556457162,0.010244287550449371,0.0,-0.0009320920798927546,0.08204599469900131,-0.10820415616035461,0.0943436473608017,-0.2559141516685486,13.555906295776367,0.00695948489010334,0.0188757237046957,-0.050147950649261475,0.02650788426399231,-0.0538414791226387,0.07263033837080002,-0.10590090602636337,0.09799133241176605,-0.11114314198493958,0.06983165442943573,-1.4459015801548958e-05,13.558649063110352,6.851619720458984,6.707029819488525,1827.0,1815.0,-0.010152885690331459,-0.16390860080718994,-0.06664051115512848,0.06153371185064316,0.11281932890415192,0.03784535825252533,-0.06975670158863068,0.05631741136312485,-0.27721619606018066,0.19970987737178802,-0.13966330885887146,-0.11175119876861572,0.11767934262752533,-1.4459020349022467e-05,1.0,0.34206607937812805,0.8666464686393738,0,0.30000001192092896,0,1,1,0,0,0.0,0.0,0,1201781481,4288,215
827477062,5,428,11050,5880,200999137,201000,196481,308,3578,4584,-5240,-391,29,420,27.40625,0.20604664087295532,0.18948623538017273,0.9434823393821716,-12.489153861999512,9.765987396240234,0.3834902048110962,2.3976998329162598,0.13335490226745605,9.876335144042969,1577,1500,2011,1500,2000,1503,1000,1000,1940,1464,1550,1838,1805,1494,1480,510,462,8090,8127,0,,,,,1,1,1,1,1,1,1,0,1,1,0,0,stabilized_mix,0.5017486810684204,-0.9552935361862183,0.6843520402908325,0.004463995341211557,-0.024376600980758667,-0.29778021574020386,0.0,0.12319999933242798,-0.004463995341211557,0.14757660031318665,-0.0015984394121915102,0.08406906574964523,-0.0022319976706057787,0.07378830015659332,0.0006335582002066076,0.010280768387019634,0.0,0.0,1.0,-0.0022319976706057787,0.07378830015659332,-0.10820415616035461,0.0006335582002066076,0.010280768387019634,0.0,-0.0015984394121915102,0.08406906574964523,-0.10820415616035461,-0.01399739645421505,-0.4537196755409241,13.551072120666504,-0.0010329361539334059,0.03346967697143555,-0.0332358181476593,-0.0007609976455569267,-0.04580008238554001,0.05708920210599899,-0.07902990281581879,0.0563773438334465,-0.11100399494171143,-0.003346583340317011,-4.0022656321525574e-05,13.558672904968262,6.97944974899292,6.579223155975342,1838.0,1805.0,-0.010136931203305721,-0.16449229419231415,-0.04215924069285393,0.04640091583132744,0.11494380235671997,-0.0010869316756725311,-0.04639298468828201,0.05546906590461731,-0.21797685325145721,0.17044863104820251,0.006693166680634022,-0.06436332315206528,0.08817508816719055,-4.002269997727126e-05,1.0,0.2554800510406494,0.8666480183601379,0,0.30000001192092896,0,1,1,0,0,0.0,0.0,0,2278990741,4288,215
827477062,5,428,11051,5880,201003169,201004,196485,332,-11354,14925,-3083,-450,41,395,27.59375,0.2091129571199417,0.2599930167198181,0.9958361387252808,-15.608741760253906,16.00774574279785,-4.561012268066406,2.342055082321167,1.2402125597000122,9.856000900268555,1577,1500,2011,1500,2000,1503,1000,1000,1940,1450,1569,1831,1810,1494,1480,514,466,8090,8127,0,,,,,1,1,1,1,1,1,1,0,1,1,0,0,stabilized_mix,0.8166388273239136,-0.8283172249794006,0.9280719757080078,0.007134535349905491,-0.02649414725601673,-0.29389360547065735,0.0,0.12319999933242798,-0.007134535349905491,0.14969414472579956,-0.0029353017453104258,0.0851651057600975,-0.0035672676749527454,0.07484707236289978,0.0006319659878499806,0.010318032465875149,0.0,0.0,1.0,-0.0035672676749527454,0.07484707236289978,-0.10173968225717545,0.0006319659878499806,0.010318032465875149,0.0,-0.0029353017453104258,0.0851651057600975,-0.10173968225717545,-0.27729254961013794,-0.43828821182250977,13.53991985321045,-0.020476767793297768,0.03235199674963951,-0.03143339604139328,0.008864723145961761,-0.07528124749660492,0.07141754031181335,-0.10783516615629196,0.07931752502918243,-0.11029419302940369,0.03980233892798424,-2.467213198542595e-05,13.549849510192871,6.898285388946533,6.651564121246338,1831.0,1810.0,-0.01011145580559969,-0.16508851945400238,-0.05601463466882706,0.06268767267465591,0.11339332908391953,0.012648958712816238,-0.04378049820661545,0.056473325937986374,-0.2724239230155945,0.27938786149024963,-0.07960467785596848,-0.09044744074344635,0.1199391782283783,-2.4672146537341177e-05,1.0,0.34828272461891174,0.8660840392112732,0,0.30000001192092896,0,1,1,0,0,0.0,0.0,0,1464106766,4288,215
827477062,5,428,11052,5880,201007201,201008,196489,336,5689,1305,3550,-825,-488,709,27.625,0.18235746026039124,-0.17323991656303406,0.6515185236930847,-16.999282836914062,18.782312393188477,-6.74315881729126,2.467630386352539,2.4365100860595703,9.84817123413086,1577,1500,2011,1500,2000,1503,1000,1000,1940,1445,1567,1828,1813,1494,1480,518,470,8090,8127,0,,,,,1,1,1,1,1,1,1,0,1,1,0,0,stabilized_mix,1.1882754564285278,-0.7311050891876221,1.091893196105957,0.011413478292524815,-0.029699379578232765,-0.2898465394973755,0.0,0.12319999933242798,-0.011413478292524815,0.1528993844985962,-0.005077333189547062,0.08680576831102371,-0.005706739146262407,0.0764496922492981,0.0006294061313383281,0.010356074199080467,0.0,0.0,1.0,-0.005706739146262407,0.0764496922492981,-0.10173968225717545,0.0006294061313383281,0.010356074199080467,0.0,-0.005077333189547062,0.08680576831102371,-0.10173968225717545,-0.562568724155426,-0.464871346950531,13.530202865600586,-0.04155480116605759,0.03431491553783417,-0.015460834838449955,0.009765936993062496,-0.08841115236282349,0.07779314368963242,-0.10553658753633499,0.08587289601564407,-0.11002090573310852,0.0588451623916626,-1.7911545000970364e-05,13.549870491027832,6.864492893218994,6.685377597808838,1828.0,1813.0,-0.01007049810141325,-0.16569718718528748,-0.06005311757326126,0.061073414981365204,0.11322906613349915,0.01393335871398449,-0.021523142233490944,0.057505007833242416,-0.29669344425201416,0.32781317830085754,-0.1176903247833252,-0.09790392220020294,0.11733107268810272,-1.7911510440171696e-05,1.0,0.3408936560153961,0.8660853505134583,0,0.30000001192092896,0,1,1,0,0,0.0,0.0,0,2962646946,4288,215
827477062,5,428,11053,5880,201011261,201012,196493,328,3357,5355,-6711,-388,134,448,27.5625,0.3665578067302704,0.13748452067375183,0.9036614894866943,-13.855080604553223,13.356985092163086,3.0393829345703125,2.9380431175231934,3.508941650390625,9.840229034423828,1577,1500,2011,1500,2000,1503,1000,1000,1940,1464,1522,1840,1801,1494,1480,522,474,8090,8127,0,,,,,1,1,1,1,1,1,1,0,1,1,0,0,stabilized_mix,1.518747329711914,-0.8976644277572632,1.0196149349212646,0.016734091565012932,-0.031519174575805664,-0.28521621227264404,0.0,0.12319999933242798,-0.016734091565012932,0.15471917390823364,-0.007741475477814674,0.0877542644739151,-0.008367045782506466,0.07735958695411682,0.0006255703628994524,0.010394677519798279,0.0,0.0,1.0,-0.008367045782506466,0.07735958695411682,-0.0895579606294632,0.0006255703628994524,0.010394677519798279,0.0,-0.007741475477814674,0.0877542644739151,-0.0895579606294632,-0.8182037472724915,-0.5725176930427551,13.496336936950684,-0.0605500265955925,0.042317211627960205,0.027761435136198997,-0.00807616114616394,-0.06277451664209366,0.06346001476049423,-0.034400686621665955,0.05591954290866852,-0.10974365472793579,-0.026523619890213013,-4.769349470734596e-05,13.533230781555176,7.005082607269287,6.5281476974487305,1840.0,1801.0,-0.01000912580639124,-0.16631484031677246,-0.042014434933662415,0.019880572333931923,0.11604536324739456,-0.011509673669934273,0.03867940977215767,0.057477787137031555,-0.24181677401065826,0.23312336206436157,0.053047239780426025,-0.06372183561325073,0.03834376111626625,-4.769354563904926e-05,1.0,0.18086755275726318,0.8650217652320862,0,0.30000001192092896,0,1,1,0,0,0.0,0.0,0,37021747,4288,215
827477062,5,428,11054,5880,201015225,201016,196497,306,-8813,11877,-4202,-400,217,414,27.390625,0.2879580855369568,0.18190120160579681,0.9473893046379089,-15.996574401855469,16.69855499267578,-1.2017769813537598,2.6364939212799072,4.7613301277160645,9.828653335571289,1577,1500,2011,1500,2000,1503,1000,1000,1940,1451,1523,1834,1806,1494,1480,526,478,8090,8127,0,,,,,1,1,1,1,1,1,1,0,1,1,0,0,stabilized_mix,1.7469269037246704,-0.6837062239646912,1.189348578453064,0.023344233632087708,-0.03386169299483299,-0.28027111291885376,0.0,0.12319999933242798,-0.023344233632087708,0.15706169605255127,-0.011051958426833153,0.08896465599536896,-0.011672116816043854,0.07853084802627563,0.000620158389210701,0.010433811694383621,0.0,0.0,1.0,-0.011672116816043854,0.07853084802627563,-0.0895579606294632,0.000620158389210701,0.010433811694383621,0.0,-0.011051958426833153,0.08896465599536896,-0.0895579606294632,-1.1174317598342896,-0.4980892241001129,13.477838516235352,-0.08271963894367218,0.0368131622672081,0.04312519729137421,0.003979957662522793,-0.0786200538277626,0.07328467071056366,-0.0357021763920784,0.077004574239254,-0.10933959484100342,0.010487482883036137,-3.4598284400999546e-05,13.53325080871582,6.939617156982422,6.593634128570557,1834.0,1806.0,-0.009922534227371216,-0.16694098711013794,-0.05457649379968643,0.020141957327723503,0.11576949059963226,0.005670970305800438,0.059991348534822464,0.058732278645038605,-0.27919289469718933,0.2914447486400604,-0.020974965766072273,-0.0877058282494545,0.03973696008324623,-3.4598237107275054e-05,1.0,0.24894316494464874,0.8650230765342712,0,0.30000001192092896,0,1,1,0,0,0.0,0.0,0,332251376,4288,215
827477062,5,428,11055,5880,201019235,201020,196501,340,2910,4671,3189,-897,-471,710,27.65625,0.21677859127521515,-0.16767261922359467,0.7129951119422913,-17.700464248657227,19.502023696899414,-5.189942359924316,2.5361733436584473,5.927797317504883,9.832115173339844,1577,1500,2011,1500,2000,1503,1000,1000,1940,1443,1522,1829,1810,1494,1480,530,482,8090,8127,0,,,,,1,1,1,1,1,1,1,0,1,1,0,0,stabilized_mix,1.9788970947265625,-0.5281726121902466,1.2992522716522217,0.030937599018216133,-0.0362207405269146,-0.275217741727829,0.0,0.12319999933242798,-0.030937599018216133,0.15942074358463287,-0.014855879358947277,0.09018391370773315,-0.015468799509108067,0.07971037179231644,0.0006129202083684504,0.010473538190126419,0.0,0.0,1.0,-0.015468799509108067,0.07971037179231644,-0.0895579606294632,0.0006129202083684504,0.010473538190126419,0.0,-0.014855879358947277,0.09018391370773315,-0.0895579606294632,-1.3965541124343872,-0.4708099663257599,13.45278549194336,-0.10344099253416061,0.0347960889339447,0.05835713446140289,0.010317211039364338,-0.09195369482040405,0.0811079666018486,-0.03478178381919861,0.09008894115686417,-0.10946044325828552,0.04529079049825668,-2.24594259634614e-05,13.533272743225098,6.878933429718018,6.654338836669922,1829.0,1810.0,-0.009806723333895206,-0.1675766110420227,-0.062437817454338074,0.019124316051602364,0.11565419286489487,0.014704054221510887,0.08107388019561768,0.06017231196165085,-0.3089313805103302,0.34037452936172485,-0.09058158099651337,-0.10257209837436676,0.0386706180870533,-2.2459376850747503e-05,1.0,0.2911389470100403,0.8650244474411011,0,0.30000001192092896,0,1,1,0,0,0.0,0.0,0,1088101633,4288,215
827477062,5,428,11056,5880,201023265,201024,196505,296,4492,3660,-2990,-505,76,463,27.3125,0.2740757465362549,0.06081219017505646,0.8862559795379639,-14.191049575805664,15.781371116638184,2.6752848625183105,2.848738670349121,6.6083478927612305,9.827583312988281,1577,1500,2011,1500,2000,1503,1000,1000,1940,1462,1491,1838,1800,1494,1480,534,486,8090,8127,0,,,,,1,1,1,1,1,1,1,0,1,1,0,0,stabilized_mix,2.025881767272949,-0.6452511548995972,1.1288604736328125,0.03804143890738487,-0.03697090595960617,-0.2700992226600647,0.0,0.12319999933242798,-0.03804143890738487,0.16017091274261475,-0.01841682940721512,0.09059891104698181,-0.019020719453692436,0.08008545637130737,0.0006038895808160305,0.01051345281302929,0.0,0.0,1.0,-0.019020719453692436,0.08008545637130737,-0.06966965645551682,0.0006038895808160305,0.01051345281302929,0.0,-0.01841682940721512,0.09059891104698181,-0.06966965645551682,-1.55788254737854,-0.5405627489089966,13.40505599975586,-0.11569702625274658,0.04003429412841797,0.08735175430774689,-0.005660144612193108,-0.0743560716509819,0.0651329979300499,0.01348104327917099,0.06003492325544357,-0.10930225253105164,-0.02334626391530037,-4.642701242119074e-05,13.50610065460205,6.985185623168945,6.520915508270264,1838.0,1800.0,-0.009662233293056488,-0.16821524500846863,-0.04452303797006607,-0.009058495983481407,0.11724858731031418,-0.008048679679632187,0.12129873037338257,0.05984684079885483,-0.24768054485321045,0.2754368782043457,0.04669252783060074,-0.06826894730329514,-0.014993676915764809,-4.642697604140267e-05,1.0,0.1941632777452469,0.8632876873016357,0,0.30000001192092896,0,1,1,0,0,0.0,0.0,0,3546959194,4288,215
827477062,5,428,11068,5891,201071658,201072,196553,310,1953,9024,396,-1064,-481,300,27.421875,0.07183678448200226,-0.0861227735877037,0.8656709790229797,-9.63417911529541,31.928125381469727,-10.821829795837402,0.8096364140510559,6.032041549682617,9.475090026855469,1577,1500,2011,1500,2000,1503,1000,1000,1940,1463,1583,1816,1815,1494,1480,582,534,8090,8127,0,,,,,1,1,1,1,1,1,1,0,1,1,0,0,stabilized_mix,0.4490851163864136,0.12613682448863983,0.9394371509552002,0.07498028874397278,-0.031240573152899742,-0.22213011980056763,0.0,0.12319999933242798,-0.07498028874397278,0.15444056689739227,-0.03708041086792946,0.08821363747119904,-0.03749014437198639,0.07722028344869614,0.0004097339406143874,0.0109933502972126,0.0,0.0,1.0,-0.03749014437198639,0.07722028344869614,-0.015186553820967674,0.0004097339406143874,0.0109933502972126,0.0,-0.03708041086792946,0.08821363747119904,-0.015186553820967674,-1.4413740634918213,-0.06141507625579834,13.353963851928711,-0.10751979798078537,0.004572425503283739,0.0227256678044796,0.017910409718751907,-0.15168780088424683,0.04444585740566254,-0.13020488619804382,0.05765964835882187,-0.09699791669845581,0.09443827718496323,-8.958159014582634e-07,13.43166732788086,6.720312595367432,6.711354732513428,1816.0,1815.0,-0.006555743049830198,-0.1758936047554016,-0.044081225991249084,0.0723109319806099,0.11359217017889023,0.025330599397420883,0.03142353519797325,0.052478015422821045,-0.16814814507961273,0.5572509169578552,-0.18887655436992645,-0.0652097761631012,0.14364506304264069,-8.958738249020826e-07,1.0,0.42016592621803284,0.8585300445556641,0,0.30000001192092896,0,1,1,0,0,0.0,0.0,0,2943216684,4289,216
827477062,5,428,11069,5891,201075691,201076,196557,346,2428,2362,-930,-964,-195,312,27.703125,0.10756275802850723,0.012246519327163696,0.8332909345626831,-8.433944702148438,32.73164367675781,-5.35318660736084,0.9612610340118408,5.945082187652588,9.448789596557617,1577,1500,2011,1500,2000,1503,1000,1000,1940,1469,1587,1823,1809,1494,1480,586,538,8090,8127,0,,,,,1,1,1,1,1,1,1,0,1,1,0,0,stabilized_mix,0.40419334173202515,0.015853574499487877,0.945987343788147,0.07619090378284454,-0.030542107298970222,-0.21814768016338348,0.0,0.12319999933242798,-0.07619090378284454,0.15374210476875305,-0.03770468756556511,0.08790287375450134,-0.03809545189142227,0.07687105238437653,0.00039076298708096147,0.011031819507479668,0.0,0.0,1.0,-0.03809545189142227,0.07687105238437653,-0.015186553820967674,0.00039076298708096147,0.011031819507479668,0.0,-0.03770468756556511,0.08790287375450134,-0.015186553820967674,-1.4220702648162842,-0.09708157181739807,13.35582160949707,-0.10607603192329407,0.007227875757962465,0.018790051341056824,0.012452798895537853,-0.1554628610610962,0.038906753063201904,-0.13710778951644897,0.04898068308830261,-0.09607985615730286,0.04671536386013031,-1.7277547158300877e-05,13.431666374206543,6.802220821380615,6.6294450759887695,1823.0,1809.0,-0.0062522077932953835,-0.17650911211967468,-0.039003003388643265,0.07631471753120422,0.11381557583808899,0.017614316195249557,0.02599518373608589,0.051606159657239914,-0.1472001075744629,0.5712749361991882,-0.09343072772026062,-0.05540085956454277,0.1512829214334488,-1.7277570805163123e-05,1.0,0.44230204820632935,0.8585299849510193,0,0.30000001192092896,0,1,1,0,0,0.0,0.0,0,2728424954,4289,216
827477062,5,428,11070,5891,201079726,201080,196561,312,-4329,8502,-768,-1240,-35,229,27.4375,0.023688703775405884,0.0839356780052185,0.9173874855041504,-8.02182674407959,35.53464889526367,-6.226577281951904,0.8160301446914673,5.826540946960449,9.414569854736328,1577,1500,2011,1500,2000,1503,1000,1000,1940,1470,1604,1821,1810,1494,1480,590,542,8090,8127,0,,,,,1,1,1,1,1,1,1,0,1,1,0,0,stabilized_mix,0.3394624590873718,0.04158222675323486,1.0121276378631592,0.07737674564123154,-0.02977464534342289,-0.21381303668022156,0.0,0.12319999933242798,-0.07737674564123154,0.15297465026378632,-0.038316886872053146,0.08755743503570557,-0.03868837282061577,0.07648732513189316,0.0003714851918630302,0.011070108972489834,0.0,0.0,1.0,-0.03868837282061577,0.07648732513189316,-0.015186553820967674,0.0003714851918630302,0.011070108972489834,0.0,-0.038316886872053146,0.08755743503570557,-0.015186553820967674,-1.3954089879989624,-0.06361517310142517,13.358832359313965,-0.10407847166061401,0.004736226983368397,0.006760295480489731,0.013538568280637264,-0.16888752579689026,0.03700365871191025,-0.16273963451385498,0.04753538966178894,-0.09488534927368164,0.05433713644742966,-1.4191842637956142e-05,13.431666374206543,6.786792278289795,6.64487361907959,1821.0,1810.0,-0.005943763069808483,-0.17712174355983734,-0.03831328824162483,0.09099514037370682,0.11330752819776535,0.019149012863636017,0.009352538734674454,0.05100957304239273,-0.14000728726387024,0.6201966404914856,-0.10867427289485931,-0.0537676066160202,0.17934760451316833,-1.4191873560776003e-05,1.0,0.5243173837661743,0.8585299849510193,0,0.30000001192092896,0,1,1,0,0,0.0,0.0,0,3458572146,4289,216
827477062,5,428,11071,5891,201083756,201084,196565,318,693,9986,-1290,-1137,-505,326,27.484375,0.1054135337471962,-0.1222015842795372,0.8273646235466003,-9.389053344726562,32.37112808227539,-11.247322082519531,0.5723698139190674,6.012309551239014,9.382442474365234,1577,1500,2011,1500,2000,1503,1000,1000,1940,1462,1585,1814,1815,1494,1480,594,546,8090,8127,0,,,,,1,1,1,1,1,1,1,0,1,1,0,0,stabilized_mix,0.41817790269851685,0.115231454372406,1.1309473514556885,0.07669217139482498,-0.02813795767724514,-0.20932739973068237,0.0,0.12319999933242798,-0.07669217139482498,0.15133795142173767,-0.037993691861629486,0.086776964366436,-0.03834608569741249,0.07566897571086884,0.00035239197313785553,0.011107991449534893,0.0,0.0,1.0,-0.03834608569741249,0.07566897571086884,-0.002708345651626587,0.00035239197313785553,0.011107991449534893,0.0,-0.037993691861629486,0.086776964366436,-0.002708345651626587,-1.4367364645004272,-0.0077314674854278564,13.337435722351074,-0.1073082983493805,0.0005763472872786224,0.021014321595430374,0.0219419002532959,-0.1540319323539734,0.04336967319250107,-0.13428911566734314,0.0603632926940918,-0.09376388788223267,0.09815140068531036,1.5356345102190971e-06,13.414597511291504,6.699620246887207,6.714976787567139,1814.0,1815.0,-0.0056382715702056885,-0.1777278631925583,-0.04552996903657913,0.07448695600032806,0.11338010430335999,0.030994020402431488,0.029016658663749695,0.05096392333507538,-0.16386988759040833,0.5649827718734741,-0.19630280137062073,-0.06817483901977539,0.14791083335876465,1.5356293943113997e-06,1.0,0.43326321244239807,0.8574389219284058,0,0.30000001192092896,0,1,1,0,0,0.0,0.0,0,2181063182,4289,216
827477062,5,428,11072,5891,201087790,201088,196569,336,5884,1166,-2777,-917,-282,271,27.625,0.16259481012821198,-0.022329702973365784,0.8222261071205139,-6.913175582885742,31.684770584106445,-4.814401626586914,0.8357409834861755,6.1012654304504395,9.360742568969727,1577,1500,2011,1500,2000,1503,1000,1000,1940,1474,1579,1822,1808,1494,1480,598,550,8090,8127,0,,,,,1,1,1,1,1,1,1,0,1,1,0,0,stabilized_mix,0.4510424733161926,-0.03885404020547867,1.0913883447647095,0.07795906066894531,-0.027677444741129875,-0.2047085165977478,0.0,0.12319999933242798,-0.07795906066894531,0.150877445936203,-0.03864654526114464,0.08658444881439209,-0.038979530334472656,0.0754387229681015,0.0003329858009237796,0.011145726777613163,0.0,0.0,1.0,-0.038979530334472656,0.0754387229681015,-0.002708345651626587,0.0003329858009237796,0.011145726777613163,0.0,-0.03864654526114464,0.08658444881439209,-0.002708345651626587,-1.458406686782837,-0.06913158297538757,13.334906578063965,-0.10893464088439941,0.005153481848537922,0.026191499084234238,0.010456227697432041,-0.15058764815330505,0.03192954510450363,-0.12461785227060318,0.04030890762805939,-0.093006432056427,0.04201357811689377,-1.784751657396555e-05,13.41459846496582,6.796536922454834,6.618061542510986,1822.0,1808.0,-0.005327772814780474,-0.1783316284418106,-0.03366060182452202,0.06906973570585251,0.11447837203741074,0.014771461486816406,0.036200325936079025,0.04956763610243797,-0.12065767496824265,0.5530035495758057,-0.08402715623378754,-0.04554023966193199,0.1374543160200119,-1.7847498384071514e-05,1.0,0.4022271931171417,0.8574389815330505,0,0.30000001192092896,0,1,1,0,0,0.0,0.0,0,178699142,4289,216
827477062,5,428,11073,5891,201091821,201092,196573,330,-5458,8842,1581,-1158,96,132,27.578125,0.03353077545762062,0.12834937870502472,0.9343565106391907,-6.682328701019287,34.12154769897461,-5.017988681793213,0.6074368953704834,6.029985427856445,9.325958251953125,1577,1500,2011,1500,2000,1503,1000,1000,1940,1473,1593,1821,1807,1494,1480,602,554,8090,8127,0,,,,,1,1,1,1,1,1,1,0,1,1,0,0,stabilized_mix,0.39749202132225037,0.010080404579639435,1.179160475730896,0.07736567407846451,-0.0262146033346653,-0.19963470101356506,0.0,0.12319999933242798,-0.07736567407846451,0.14941459894180298,-0.038369353860616684,0.0858905166387558,-0.038682837039232254,0.07470729947090149,0.0003134830330964178,0.01118321344256401,0.0,0.0,1.0,-0.038682837039232254,0.07470729947090149,0.014712494798004627,0.0003134830330964178,0.01118321344256401,0.0,-0.038369353860616684,0.0858905166387558,0.014712494798004627,-1.439171552658081,-0.016781754791736603,13.313202857971191,-0.10768292099237442,0.001253232709132135,0.01629253849387169,0.014185715466737747,-0.16257426142692566,0.030918072909116745,-0.14656096696853638,0.04276806861162186,-0.09179222583770752,0.04379021003842354,-1.680071000009775e-05,13.390776634216309,6.779391765594482,6.611384391784668,1821.0,1807.0,-0.0050157285295426846,-0.17893141508102417,-0.0351790226995945,0.08163007348775864,0.11392860114574432,0.02000325731933117,0.022477038204669952,0.04912935197353363,-0.11662863940000534,0.5955333709716797,-0.08758042007684708,-0.04823281243443489,0.16119574010372162,-1.680070454312954e-05,1.0,0.4725882112979889,0.8559163808822632,0,0.30000001192092896,0,1,1,0,0,0.0,0.0,0,1576384246,4289,216
827477062,5,428,11074,5891,201095855,201096,196577,308,-591,11483,891,-1134,-588,394,27.40625,0.04651305079460144,-0.15065857768058777,0.7780816555023193,-9.555012702941895,32.176212310791016,-13.168243408203125,0.21219748258590698,6.210278511047363,9.292070388793945,1577,1500,2011,1500,2000,1503,1000,1000,1940,1457,1582,1810,1817,1494,1480,606,558,8090,8127,0,,,,,1,1,1,1,1,1,1,0,1,1,0,0,stabilized_mix,0.4585159122943878,0.13156758248806,1.3333685398101807,0.07883638143539429,-0.025738708674907684,-0.19448983669281006,0.0,0.12319999933242798,-0.07883638143539429,0.14893871545791626,-0.039124321192502975,0.08568985760211945,-0.039418190717697144,0.07446935772895813,0.00029386792448349297,0.011220498010516167,0.0,0.0,1.0,-0.039418190717697144,0.07446935772895813,0.014712494798004627,0.00029386792448349297,0.011220498010516167,0.0,-0.039124321192502975,0.08568985760211945,0.014712494798004627,-1.4821850061416626,0.07494951784610748,13.308284759521484,-0.11091601103544235,-0.0055971285328269005,0.026052484288811684,0.029585428535938263,-0.15344709157943726,0.04421576112508774,-0.12891298532485962,0.06804037094116211,-0.09060931205749512,0.11491460353136063,8.506816811859608e-06,13.390778541564941,6.652855396270752,6.737923622131348,1810.0,1817.0,-0.0047018867917358875,-0.17952796816825867,-0.049859680235385895,0.07114021480083466,0.1132059171795845,0.041713058948516846,0.035892222076654434,0.04971463978290558,-0.1667664349079132,0.5615808367729187,-0.22982920706272125,-0.07669632881879807,0.14170178771018982,8.506851372658275e-06,1.0,0.41601917147636414,0.8559165000915527,0,0.30000001192092896,0,1,1,0,0,0.0,0.0,0,3571497611,4289,216
827477062,5,428,11075,5891,201099888,201100,196581,332,7273,1085,-5534,-930,-337,209,27.59375,0.20432689785957336,-0.013016507029533386,0.827849268913269,-5.528693199157715,30.60133171081543,-5.420987129211426,0.5994324684143066,6.267516136169434,9.266225814819336,1577,1500,2011,1500,2000,1503,1000,1000,1940,1478,1571,1820,1808,1494,1480,610,562,8090,8127,0,,,,,1,1,1,1,1,1,1,0,1,1,0,0,stabilized_mix,0.4716803729534149,-0.07727915048599243,1.207503318786621,0.08014236390590668,-0.025363801047205925,-0.18933220207691193,0.0,0.12319999933242798,-0.08014236390590668,0.14856380224227905,-0.03979726508259773,0.0855395495891571,-0.04007118195295334,0.07428190112113953,0.00027391695766709745,0.011257645674049854,0.0,0.0,1.0,-0.04007118195295334,0.07428190112113953,0.014712494798004627,0.00027391695766709745,0.011257645674049854,0.0,-0.03979726508259773,0.0855395495891571,0.014712494798004627,-1.4964696168899536,-0.015049159526824951,13.306890487670898,-0.11198773235082626,0.001123845111578703,0.03391173481941223,0.010935597121715546,-0.14562857151031494,0.025577910244464874,-0.11185946315526962,0.03424728661775589,-0.08970716595649719,0.04730703681707382,-1.4840043149888515e-05,13.390780448913574,6.769590854644775,6.621190071105957,1820.0,1808.0,-0.004382671322673559,-0.18012233078479767,-0.029894022271037102,0.06159861013293266,0.11496930569410324,0.015419750474393368,0.046795524656772614,0.0475083664059639,-0.09649389982223511,0.534093976020813,-0.09461407363414764,-0.038627989590168,0.1232541874051094,-1.4840044968877919e-05,1.0,0.3612337112426758,0.8559166193008423,0,0.30000001192092896,0,1,1,0,0,0.0,0.0,0,2823630666,4289,216
827477062,5,428,11085,5900,201139202,201140,196620,332,-8374,11741,2352,-969,-170,125,27.59375,0.04433881863951683,-0.008135825395584106,0.8859714865684509,-4.021401405334473,28.75274085998535,-7.052866458892822,-0.3849893808364868,4.363317966461182,9.047758102416992,1575,1500,2011,1500,2000,1503,1000,1000,1940,1473,1589,1813,1807,1494,1480,650,602,8090,8127,0,,,,,1,1,1,1,1,1,1,0,1,1,0,0,stabilized_mix,0.031341008841991425,0.070266492664814,1.2631794214248657,0.07108952105045319,-0.01927482895553112,-0.13591386377811432,0.0,0.12000000476837158,-0.07108952105045319,0.13927483558654785,-0.03546164557337761,0.08125076442956924,-0.03554476052522659,0.06963741779327393,8.311650162795559e-05,0.011613343842327595,0.0,0.0,1.0,-0.03554476052522659,0.06963741779327393,0.0880594551563263,8.311650162795559e-05,0.011613343842327595,0.0,-0.03546164557337761,0.08125076442956924,0.0880594551563263,-1.0414222478866577,0.20633256435394287,13.247973442077637,-0.07844860106706619,-0.01552550308406353,-0.0015998927410691977,0.027186192572116852,-0.13786041736602783,0.018744513392448425,-0.1398785412311554,0.04314437508583069,-0.08208119869232178,0.06154787167906761,-7.186667062342167e-06,13.290445327758789,6.681155681610107,6.609289169311523,1813.0,1807.0,-0.0013298640260472894,-0.18581350147724152,-0.034719862043857574,0.07773581147193909,0.11410664021968842,0.03804391995072365,-0.0021915175020694733,0.043628670275211334,-0.07018669694662094,0.501829981803894,-0.12309574335813522,-0.04829214885830879,0.15273980796337128,-7.186664333858062e-06,1.0,0.45118510723114014,0.8495033383369446,0,0.30000001192092896,0,1,1,0,0,0.0,0.0,0,1423707533,4290,217
827477062,5,428,11086,5900,201143232,201144,196624,300,9985,4339,860,-920,-458,196,27.34375,0.12860335409641266,-0.17484812438488007,0.8344104886054993,-2.422499895095825,23.967565536499023,-4.112347602844238,-0.12875086069107056,4.633335113525391,9.041988372802734,1575,1500,2011,1500,2000,1503,1000,1000,1940,1482,1560,1816,1803,1494,1480,654,606,8090,8127,0,,,,,1,1,1,1,1,1,1,0,1,1,0,0,stabilized_mix,0.21985967457294464,-0.01333608478307724,1.178812026977539,0.06985834985971451,-0.018659017980098724,-0.1310037225484848,0.0,0.12000000476837158,-0.06985834985971451,0.1386590301990509,-0.03486349806189537,0.08097752928733826,-0.034929174929857254,0.06932951509952545,6.567619857378304e-05,0.011648012325167656,0.0,0.0,1.0,-0.034929174929857254,0.06932951509952545,0.10031161457300186,6.567619857378304e-05,0.011648012325167656,0.0,-0.03486349806189537,0.08097752928733826,0.10031161457300186,-1.1017616987228394,0.14653389155864716,13.227076530456543,-0.08310408890247345,-0.011039645411074162,0.021179702132940292,0.01773304119706154,-0.11488667130470276,0.011304710991680622,-0.09373454004526138,0.027682339772582054,-0.08187979459762573,0.03588700294494629,-1.609744504094124e-05,13.27369213104248,6.71733283996582,6.556358814239502,1816.0,1803.0,-0.0010508191771805286,-0.1863681972026825,-0.025353359058499336,0.051379356533288956,0.11552709341049194,0.02478679269552231,0.028978722169995308,0.042510222643613815,-0.04228059947490692,0.4183129370212555,-0.07177400588989258,-0.030950620770454407,0.10246460884809494,-1.60974759637611e-05,1.0,0.30289095640182495,0.8484324812889099,0,0.30000001192092896,0,1,1,0,0,0.0,0.0,0,2280090042,4290,217
827477062,5,428,11087,5900,201147265,201148,196628,334,535,6174,-6138,-480,198,-104,27.609375,0.21287818253040314,0.10726945102214813,0.9258427619934082,0.45770084857940674,21.488662719726562,0.6751101016998291,-0.1682039499282837,4.8172926902771,9.024490356445312,1575,1500,2011,1500,2000,1503,1000,1000,1940,1495,1544,1822,1797,1494,1480,658,610,8090,8127,0,,,,,1,1,1,1,1,1,1,0,1,1,0,0,stabilized_mix,0.30899566411972046,-0.09247681498527527,1.1016987562179565,0.07043442875146866,-0.018178656697273254,-0.12618303298950195,0.0,0.12000000476837158,-0.07043442875146866,0.13817866146564484,-0.03516910597681999,0.08077190071344376,-0.03521721437573433,0.06908933073282242,4.8107340262504295e-05,0.011682569980621338,0.0,0.0,1.0,-0.03521721437573433,0.06908933073282242,0.10031161457300186,4.8107340262504295e-05,0.011682569980621338,0.0,-0.03516910597681999,0.08077190071344376,0.10031161457300186,-1.1447151899337769,0.15540996193885803,13.223325729370117,-0.08635259419679642,-0.011708386242389679,0.034220919013023376,0.010230924002826214,-0.10292402654886246,-0.002136785304173827,-0.06858684867620468,0.008294274099171162,-0.08126899600028992,-0.005891446955502033,-3.050616942346096e-05,13.273691177368164,6.789376735687256,6.484314918518066,1822.0,1797.0,-0.0007697174442000687,-0.1869211196899414,-0.01386952679604292,0.03697808459401131,0.11634615808725357,0.014299876987934113,0.04683582857251167,0.04131818190217018,0.007988386787474155,0.3750479221343994,0.011782893911004066,-0.009275204502046108,0.075050488114357,-3.0506154871545732e-05,1.0,0.22177597880363464,0.8484324216842651,0,0.30000001192092896,0,1,1,0,0,0.0,0.0,0,542822354,4290,217
827477062,5,428,11088,5900,201151330,201152,196632,328,-9956,12005,1051,-884,-55,38,27.5625,0.030586598441004753,0.04403257369995117,0.9354822039604187,-2.1913700103759766,27.001319885253906,-5.8645477294921875,-0.4939095973968506,4.961780548095703,9.006832122802734,1575,1500,2011,1500,2000,1503,1000,1000,1940,1480,1571,1812,1804,1494,1480,662,614,8090,8127,0,,,,,1,1,1,1,1,1,1,0,1,1,0,0,stabilized_mix,0.3184409737586975,0.0747707188129425,1.1269689798355103,0.06963997334241867,-0.017080118879675865,-0.12146715074777603,0.0,0.12000000476837158,-0.06963997334241867,0.137080118060112,-0.03478945419192314,0.08025702834129333,-0.034819986671209335,0.068540059030056,3.0531780794262886e-05,0.01171697024255991,0.0,0.0,1.0,-0.034819986671209335,0.068540059030056,0.11226548254489899,3.0531780794262886e-05,0.01171697024255991,0.0,-0.03478945419192314,0.08025702834129333,0.11226548254489899,-1.1762806177139282,0.2296258509159088,13.203059196472168,-0.08885692059993744,-0.017321521416306496,0.017879251390695572,0.023880943655967712,-0.12968477606773376,0.010240511037409306,-0.11185706406831741,0.03193673491477966,-0.0806526243686676,0.05117783322930336,-1.0316143743693829e-05,13.257343292236328,6.680252552032471,6.577091217041016,1812.0,1804.0,-0.0004885084927082062,-0.18747152388095856,-0.027864089235663414,0.06174580752849579,0.11510288715362549,0.03333820030093193,0.024431750178337097,0.04219585284590721,-0.03824662044644356,0.4712619185447693,-0.10235566645860672,-0.03566313162446022,0.12203146517276764,-1.0316176485503092e-05,1.0,0.3612222969532013,0.8473874926567078,0,0.30000001192092896,0,1,1,0,0,0.0,0.0,0,2900450146,4290,217
827477062,5,428,11089,5900,201155333,201156,196636,326,3615,6963,2296,-984,-429,165,27.546875,0.09248319268226624,-0.12324206531047821,0.8474606275558472,-1.732297420501709,23.144054412841797,-5.413302898406982,-0.3605697751045227,5.195728778839111,8.997255325317383,1575,1500,2011,1500,2000,1503,1000,1000,1940,1483,1547,1813,1804,1494,1480,666,618,8090,8127,0,,,,,1,1,1,1,1,1,1,0,1,1,0,0,stabilized_mix,0.42514950037002563,0.046007946133613586,1.1206649541854858,0.07076780498027802,-0.016745777800679207,-0.11695461720228195,0.0,0.12000000476837158,-0.07076780498027802,0.13674578070640564,-0.03537097945809364,0.08012407273054123,-0.03538390249013901,0.06837289035320282,1.2922304449602962e-05,0.01175118237733841,0.0,0.0,1.0,-0.03538390249013901,0.06837289035320282,0.11226548254489899,1.2922304449602962e-05,0.01175118237733841,0.0,-0.03537097945809364,0.08012407273054123,0.11226548254489899,-1.2310165166854858,0.19880729913711548,13.198570251464844,-0.0929998829960823,-0.014996574260294437,0.03666330873966217,0.020043598487973213,-0.11105652898550034,0.008095336146652699,-0.07437524199485779,0.026407215744256973,-0.08031833171844482,0.04723997786641121,-1.157738734036684e-05,13.257344245910645,6.686559200286865,6.5707855224609375,1813.0,1804.0,-0.00020675687119364738,-0.18801891803741455,-0.024413341656327248,0.04016118869185448,0.11585023254156113,0.027979638427495956,0.05009946972131729,0.041520290076732635,-0.03023429401218891,0.40393996238708496,-0.09447995573282242,-0.029490744695067406,0.08124709874391556,-1.1577423720154911e-05,1.0,0.24045871198177338,0.8473875522613525,0,0.30000001192092896,0,1,1,0,0,0.0,0.0,0,1561471244,4290,217
827477062,5,428,11090,5900,201159392,201160,196640,328,4290,4706,-3592,-443,-21,-59,27.5625,0.13882237672805786,0.04373464733362198,0.875207245349884,0.44796043634414673,19.313833236694336,-1.224996566772461,-0.2085975706577301,5.1757073402404785,8.978971481323242,1575,1500,2011,1500,2000,1503,1000,1000,1940,1495,1527,1818,1799,1494,1480,670,622,8090,8127,0,,,,,1,1,1,1,1,1,1,0,1,1,0,0,stabilized_mix,0.3908241391181946,-0.07209774106740952,1.0638208389282227,0.07191187143325806,-0.016281936317682266,-0.11242209374904633,0.0,0.12000000476837158,-0.07191187143325806,0.13628193736076355,-0.03596092015504837,0.07992623001337051,-0.03595593571662903,0.06814096868038177,-4.9861228035297245e-06,0.011785263195633888,0.0,0.0,1.0,-0.03595593571662903,0.06814096868038177,0.11226548254489899,-4.9861228035297245e-06,0.011785263195633888,0.0,-0.03596092015504837,0.07992623001337051,0.11226548254489899,-1.227276086807251,0.16364876925945282,13.19940185546875,-0.0927131175994873,-0.012344321236014366,0.04989148676395416,0.010796579532325268,-0.09259124845266342,-0.0020936422515660524,-0.0425930991768837,0.008378163911402225,-0.07968011498451233,0.010690111666917801,-2.414651680737734e-05,13.257345199584961,6.749405384063721,6.507940292358398,1818.0,1799.0,7.977796485647559e-05,-0.1885642111301422,-0.013710658065974712,0.02186407335102558,0.11655893176794052,0.015074046328663826,0.06818355619907379,0.040398970246315,0.00781838409602642,0.33708998560905457,-0.021380223333835602,-0.009356502443552017,0.04657168686389923,-2.414650225546211e-05,1.0,0.13779021799564362,0.8473876118659973,0,0.30000001192092896,0,1,1,0,0,0.0,0.0,0,357840962,4290,217
827477062,5,428,11091,5900,201163398,201164,196644,332,-5743,8697,-400,-732,-73,-38,27.59375,0.04486468434333801,0.10351192206144333,0.9407328367233276,-0.5236849784851074,24.22834014892578,-5.810281276702881,-0.31144875288009644,5.182876110076904,8.956527709960938,1575,1500,2011,1500,2000,1503,1000,1000,1940,1490,1553,1812,1804,1494,1480,674,626,8090,8127,0,,,,,1,1,1,1,1,1,1,0,1,1,0,0,stabilized_mix,0.34504517912864685,-0.037868790328502655,1.0327221155166626,0.07144103944301605,-0.01532956212759018,-0.10803967714309692,0.0,0.12000000476837158,-0.07144103944301605,0.13532957434654236,-0.03574329987168312,0.07948391139507294,-0.035720519721508026,0.06766478717327118,-2.278048123116605e-05,0.011819121427834034,0.0,0.0,1.0,-0.035720519721508026,0.06766478717327118,0.12668545544147491,-2.278048123116605e-05,0.011819121427834034,0.0,-0.03574329987168312,0.07948391139507294,0.12668545544147491,-1.226993203163147,0.18657922744750977,13.179319381713867,-0.0928322970867157,-0.014095079153776169,0.032782815396785736,0.014758560806512833,-0.11643023788928986,0.002450771862640977,-0.0835287794470787,0.015261896885931492,-0.0788966715335846,0.05070427060127258,-9.867362678050995e-06,13.237627983093262,6.668150901794434,6.569477558135986,1812.0,1804.0,0.0003644876996986568,-0.18910594284534454,-0.017894739285111427,0.04542779549956322,0.11603465676307678,0.020574215799570084,0.04474352300167084,0.040449660271406174,-0.00914002675563097,0.42286431789398193,-0.10140854120254517,-0.017020264640450478,0.0911114290356636,-9.86733994068345e-06,1.0,0.26999205350875854,0.8461273312568665,0,0.30000001192092896,0,1,1,0,0,0.0,0.0,0,424418993,4290,217
827477062,5,428,11092,5900,201167431,201168,196648,304,-1109,7860,2752,-949,-324,85,27.375,0.05179686099290848,-0.04398704320192337,0.8852177858352661,-0.6624414920806885,22.063871383666992,-6.534943580627441,-0.22049865126609802,5.24123477935791,8.939043045043945,1575,1500,2011,1500,2000,1503,1000,1000,1940,1491,1541,1811,1805,1494,1480,678,630,8090,8127,0,,,,,1,1,1,1,1,1,1,0,1,1,0,0,stabilized_mix,0.3623119294643402,-0.0362531840801239,1.0464602708816528,0.0724814310669899,-0.01526085939258337,-0.10374869406223297,0.0,0.12000000476837158,-0.0724814310669899,0.13526086509227753,-0.03628154844045639,0.07948338240385056,-0.03624071553349495,0.06763043254613876,-4.083178282598965e-05,0.011852947995066643,0.0,0.0,1.0,-0.03624071553349495,0.06763043254613876,0.12668545544147491,-4.083178282598965e-05,0.011852947995066643,0.0,-0.03628154844045639,0.07948338240385056,0.12668545544147491,-1.2411760091781616,0.16575737297534943,13.17827320098877,-0.09390649944543839,-0.012522006407380104,0.04169907420873642,0.013404344208538532,-0.10598719120025635,0.0031003165058791637,-0.06420542299747467,0.014509288594126701,-0.07828634977340698,0.057028140872716904,-7.440336048603058e-06,13.237630844116211,6.656017303466797,6.581613540649414,1811.0,1805.0,0.0006533085252158344,-0.18964716792106628,-0.017360785976052284,0.03424617648124695,0.11625386774539948,0.01868625171482563,0.0569051131606102,0.04004031419754028,-0.011561784893274307,0.38508719205856323,-0.11405628174543381,-0.016181346029043198,0.07006886601448059,-7.44037288313848e-06,1.0,0.20763391256332397,0.8461275100708008,0,0.30000001192092896,0,1,1,0,0,0.0,0.0,0,2848430005,4290,217
827477062,5,428,11104,5911,201215827,201216,196696,320,-4631,13213,535,-643,-277,95,27.5,0.06277532875537872,-0.0843944400548935,0.8506350517272949,-2.079050064086914,15.36669921875,-6.5658464431762695,0.5034469962120056,6.029479503631592,8.816781997680664,1578,1500,2011,1500,2000,1503,1000,1000,1940,1492,1495,1807,1803,1494,1480,726,678,8090,8127,0,,,,,1,1,1,1,1,1,1,0,1,1,0,0,stabilized_mix,0.49463194608688354,-0.13104237616062164,1.0035929679870605,0.07685622572898865,-0.019174663349986076,-0.05479078367352486,0.0,0.12480000406503677,-0.07685622572898865,0.1439746618270874,-0.03869081661105156,0.08426082134246826,-0.038428112864494324,0.0719873309135437,-0.0002627026697155088,0.012273486703634262,0.0,0.0,1.0,-0.038428112864494324,0.0719873309135437,0.1812453418970108,-0.0002627026697155088,0.012273486703634262,0.0,-0.03869081661105156,0.08426082134246826,0.1812453418970108,-1.4170105457305908,0.006942369043827057,13.08662223815918,-0.10785909742116928,-0.0005274107679724693,0.08293436467647552,0.004214848391711712,-0.07415951788425446,0.009785111993551254,0.008550736121833324,0.012596609070897102,-0.07401862740516663,0.05729781836271286,-5.85231464356184e-06,13.163117408752441,6.6108198165893555,6.5522966384887695,1807.0,1803.0,0.004203242715448141,-0.1963757872581482,-0.016447650268673897,-0.007965710014104843,0.11698194593191147,0.005843085236847401,0.11244633048772812,0.03821054473519325,-0.03628626838326454,0.26819950342178345,-0.11459563672542572,-0.013967360369861126,-0.00928659550845623,-5.852282811247278e-06,1.0,0.040759555995464325,0.8413647413253784,0,0.30000001192092896,0,1,1,0,0,0.0,0.0,0,3924974221,4291,218
827477062,5,428,11105,5911,201219861,201220,196700,314,7573,60,-1097,-361,-269,30,27.453125,0.1782321333885193,-0.054337628185749054,0.828438401222229,1.1244654655456543,10.94992733001709,-0.013667821884155273,0.8763812184333801,6.123974323272705,8.822673797607422,1578,1500,2011,1500,2000,1503,1000,1000,1940,1512,1469,1815,1795,1494,1480,730,682,8090,8127,0,,,,,1,1,1,1,1,1,1,0,1,1,0,0,stabilized_mix,0.515161395072937,-0.30460402369499207,0.8489053249359131,0.078260138630867,-0.019937006756663322,-0.05126892775297165,0.0,0.12480000406503677,-0.078260138630867,0.14473700523376465,-0.0394122414290905,0.08467811346054077,-0.0391300693154335,0.07236850261688232,-0.0002821731031872332,0.012309613637626171,0.0,0.0,1.0,-0.0391300693154335,0.07236850261688232,0.1812453418970108,-0.0002821731031872332,0.012309613637626171,0.0,-0.0394122414290905,0.08467811346054077,0.1812453418970108,-1.4394601583480835,-0.0774812400341034,13.083952903747559,-0.10957654565572739,0.005886268336325884,0.10098978877067566,-0.013320454396307468,-0.05282521992921829,-0.005291030742228031,0.048036329448223114,-0.018615081906318665,-0.07422429323196411,0.00011927424930036068,-2.5936751626431942e-05,13.163125991821289,6.711246967315674,6.451879501342773,1815.0,1795.0,0.004514769650995731,-0.19695381820201874,0.0018449214985594153,-0.030695445835590363,0.11684954911470413,-0.018463362008333206,0.13684019446372986,0.037931524217128754,0.019625624641776085,0.19111227989196777,-0.00023854849860072136,0.020641060546040535,-0.05213870853185654,-2.593675526441075e-05,1.0,0.15538683533668518,0.8413652777671814,0,0.30000001192092896,0,1,1,0,0,0.0,0.0,0,3207495517,4291,218
827477062,5,428,11106,5911,201223921,201224,196704,324,-5136,8474,-927,-265,372,-166,27.53125,0.06525859981775284,0.21226826310157776,1.0253181457519531,1.8235409259796143,11.883163452148438,2.012723922729492,0.7681586742401123,5.9596967697143555,8.809926986694336,1578,1500,2011,1500,2000,1503,1000,1000,1940,1514,1477,1817,1792,1494,1480,734,686,8090,8127,0,,,,,1,1,1,1,1,1,1,0,1,1,0,0,stabilized_mix,0.40492334961891174,-0.2876681387424469,0.8519092202186584,0.0775812417268753,-0.019542448222637177,-0.04740982875227928,0.0,0.12480000406503677,-0.0775812417268753,0.14434245228767395,-0.039092112332582474,0.08451689034700394,-0.03879062086343765,0.07217122614383698,-0.0003014919348061085,0.012345666997134686,0.0,0.0,1.0,-0.03879062086343765,0.07217122614383698,0.19014239311218262,-0.0003014919348061085,0.012345666997134686,0.0,-0.039092112332582474,0.08451689034700394,0.19014239311218262,-1.4003092050552368,-0.05295327305793762,13.076088905334473,-0.10668272525072098,0.004026581067591906,0.09414919465780258,-0.013164659030735493,-0.057388804852962494,-0.00858908612281084,0.03660818189382553,-0.021421782672405243,-0.07377934455871582,-0.017564330250024796,-3.197032492607832e-05,13.150961875915527,6.735332489013672,6.4156293869018555,1817.0,1792.0,0.004823870956897736,-0.19753067195415497,0.003426975104957819,-0.02404221147298813,0.11682821810245514,-0.018231354653835297,0.12747463583946228,0.037455517798662186,0.031826794147491455,0.20740032196044922,0.03512866050004959,0.023732274770736694,-0.03970298171043396,-3.197028490831144e-05,1.0,0.11844125390052795,0.8405877947807312,0,0.30000001192092896,0,1,1,0,0,0.0,0.0,0,1689650411,4291,218
827477062,5,428,11107,5911,201227925,201228,196708,342,-2423,12500,1056,-601,-313,138,27.671875,0.04080519452691078,-0.1227174699306488,0.8350996971130371,-1.9389621019363403,14.405328750610352,-6.482038497924805,0.36643511056900024,6.079244613647461,8.801263809204102,1578,1500,2011,1500,2000,1503,1000,1000,1940,1491,1489,1807,1802,1494,1480,738,690,8090,8127,0,,,,,1,1,1,1,1,1,1,0,1,1,0,0,stabilized_mix,0.4424824118614197,-0.10153898596763611,0.9755183458328247,0.07896227389574051,-0.020069153979420662,-0.043831419199705124,0.0,0.12480000406503677,-0.07896227389574051,0.14486916363239288,-0.03980228304862976,0.08481645584106445,-0.039481136947870255,0.07243458181619644,-0.0003211468574590981,0.01238187588751316,0.0,0.0,1.0,-0.039481136947870255,0.07243458181619644,0.19014239311218262,-0.0003211468574590981,0.01238187588751316,0.0,-0.03980228304862976,0.08481645584106445,0.19014239311218262,-1.4284985065460205,0.039296358823776245,13.07309627532959,-0.10883828997612,-0.00298810051754117,0.08772566169500351,0.006954439915716648,-0.06957914680242538,0.00913317035883665,0.01791280508041382,0.014787321910262108,-0.07347694039344788,0.05656645819544792,-5.918671377003193e-06,13.150969505310059,6.605078220367432,6.545891761779785,1807.0,1802.0,0.00513834971934557,-0.19811001420021057,-0.01775761879980564,-0.013487564399838448,0.11708583682775497,0.009630229324102402,0.11881597340106964,0.03784994035959244,-0.033841270953416824,0.25142040848731995,-0.11313291639089584,-0.016382038593292236,-0.019432738423347473,-5.918668648519088e-06,1.0,0.05796441808342934,0.8405882716178894,0,0.30000001192092896,0,1,1,0,0,0.0,0.0,0,1621713334,4291,218
827477062,5,428,11108,5911,201231961,201232,196712,308,8364,1405,-3719,-345,-181,-13,27.40625,0.19591887295246124,-0.01918897032737732,0.8699401021003723,1.9453926086425781,9.570826530456543,1.1107714176177979,0.8623491525650024,6.135498046875,8.807310104370117,1578,1500,2011,1500,2000,1503,1000,1000,1940,1516,1462,1815,1792,1494,1480,742,694,8090,8127,0,,,,,1,1,1,1,1,1,1,0,1,1,0,0,stabilized_mix,0.458744615316391,-0.3372025191783905,0.7917132377624512,0.07783949375152588,-0.020077714696526527,-0.040464628487825394,0.0,0.12480000406503677,-0.07783949375152588,0.14487771689891815,-0.039260562509298325,0.08485697954893112,-0.03891974687576294,0.07243885844945908,-0.00034081662306562066,0.01241812389343977,0.0,0.0,1.0,-0.03891974687576294,0.07243885844945908,0.1999155431985855,-0.00034081662306562066,0.01241812389343977,0.0,-0.039260562509298325,0.08485697954893112,0.1999155431985855,-1.4391556978225708,-0.07369064539670944,13.05833625793457,-0.10976674407720566,0.00560916680842638,0.10640903562307358,-0.015587867237627506,-0.04626266658306122,-0.009173915721476078,0.05996780842542648,-0.024614380672574043,-0.07368800044059753,-0.009693308733403683,-2.9183458536863327e-05,13.13760757446289,6.714721202850342,6.422886848449707,1815.0,1792.0,0.005453065969049931,-0.19868998229503632,0.005346206482499838,-0.037516456097364426,0.11671619862318039,-0.021565087139606476,0.14385934174060822,0.037569280713796616,0.033953506499528885,0.16704243421554565,0.019386617466807365,0.027240145951509476,-0.0649413987994194,-2.9183456717873923e-05,1.0,0.19394326210021973,0.8397341966629028,0,0.30000001192092896,0,1,1,0,0,0.0,0.0,0,2687632762,4291,218
827477062,5,428,11109,5911,201235994,201236,196716,314,-6728,8103,-831,-128,403,-200,27.453125,0.06549609452486038,0.21946929395198822,1.005966305732727,2.361811637878418,9.429323196411133,2.4243083000183105,0.7456437349319458,5.886276721954346,8.797445297241211,1578,1500,2011,1500,2000,1503,1000,1000,1940,1516,1465,1817,1791,1494,1480,746,698,8090,8127,0,,,,,1,1,1,1,1,1,1,0,1,1,0,0,stabilized_mix,0.3265037536621094,-0.3001900315284729,0.8093488812446594,0.0788489282131195,-0.02045357972383499,-0.03688288480043411,0.0,0.12480000406503677,-0.0788489282131195,0.14525358378887177,-0.03978493809700012,0.08508119732141495,-0.03942446410655975,0.07262679189443588,-0.00036047486355528235,0.01245440449565649,0.0,0.0,1.0,-0.03942446410655975,0.07262679189443588,0.1999155431985855,-0.00036047486355528235,0.01245440449565649,0.0,-0.03978493809700012,0.08508119732141495,0.1999155431985855,-1.383022665977478,-0.04676459729671478,13.064529418945312,-0.10546807944774628,0.0035596038214862347,0.10145717114210129,-0.014252826571464539,-0.045579567551612854,-0.011136932298541069,0.055667877197265625,-0.02507217600941658,-0.07334363460540771,-0.021156080067157745,-3.307487349957228e-05,13.137613296508789,6.7341814041137695,6.403432369232178,1817.0,1791.0,0.005767597816884518,-0.19927047193050385,0.005556013900786638,-0.03507760167121887,0.11672338098287582,-0.019716504961252213,0.13718560338020325,0.037214331328868866,0.041221387684345245,0.16457273066043854,0.04231216013431549,0.027745703235268593,-0.06028832122683525,-3.307489896542393e-05,1.0,0.1800491064786911,0.8397345542907715,0,0.30000001192092896,0,1,1,0,0,0.0,0.0,0,1268917996,4291,218
827477062,5,428,11110,5911,201240025,201240,196720,326,-2261,12211,2601,-549,-355,139,27.546875,0.0007773116230964661,-0.1216718927025795,0.8488989472389221,-1.5301759243011475,12.856340408325195,-7.369513988494873,0.4132802486419678,5.868509769439697,8.787740707397461,1578,1500,2011,1500,2000,1503,1000,1000,1940,1493,1483,1805,1803,1494,1480,750,702,8090,8127,0,,,,,1,1,1,1,1,1,1,0,1,1,0,0,stabilized_mix,0.32015368342399597,-0.1344136744737625,0.9078260064125061,0.07979461550712585,-0.021110553294420242,-0.033526334911584854,0.0,0.12480000406503677,-0.07979461550712585,0.14591056108474731,-0.04027767479419708,0.08544614911079407,-0.03989730775356293,0.07295528054237366,-0.0003803673025686294,0.012490865774452686,0.0,0.0,1.0,-0.03989730775356293,0.07295528054237366,0.1999155431985855,-0.0003803673025686294,0.012490865774452686,0.0,-0.04027767479419708,0.08544614911079407,0.1999155431985855,-1.379578709602356,0.029608190059661865,13.064950942993164,-0.1052040159702301,-0.002253697020933032,0.08872034400701523,0.004816455766558647,-0.06214653700590134,0.007215695455670357,0.026340104639530182,0.010710292495787144,-0.07300490140914917,0.06431113928556442,-3.042863681912422e-06,13.13762092590332,6.584024906158447,6.553596019744873,1805.0,1803.0,0.00608587684109807,-0.19985385239124298,-0.015427627600729465,-0.018368836492300034,0.11713685095310211,0.006662404630333185,0.12004317343235016,0.037493348121643066,-0.02670660801231861,0.22438547015190125,-0.12862227857112885,-0.01185339130461216,-0.02854491025209427,-3.0428166155616054e-06,1.0,0.08522649109363556,0.8397350311279297,0,0.30000001192092896,0,1,1,0,0,0.0,0.0,0,1914432473,4291,218
827477062,5,428,11111,5911,201243049,201244,196723,320,-1040,7467,-3827,-106,294,-148,27.5,0.12559130787849426,0.19204068183898926,0.9907230138778687,3.258341073989868,6.75311803817749,4.177555084228516,0.9094512462615967,5.767804145812988,8.789094924926758,1578,1500,2011,1500,2000,1503,1000,1000,1940,1523,1452,1819,1788,1494,1480,754,706,8090,8127,0,,,,,1,1,1,1,1,1,1,0,1,1,0,0,stabilized_mix,0.28117814660072327,-0.38276511430740356,0.7359588742256165,0.07797699421644211,-0.020885150879621506,-0.031114906072616577,0.0,0.12480000406503677,-0.07797699421644211,0.14568515121936798,-0.03938833996653557,0.08536982536315918,-0.038988497108221054,0.07284257560968399,-0.00039984207251109183,0.012527253478765488,0.0,0.0,1.0,-0.038988497108221054,0.07284257560968399,0.20892810821533203,-0.00039984207251109183,0.012527253478765488,0.0,-0.03938833996653557,0.08536982536315918,0.20892810821533203,-1.3541934490203857,-0.08366504311561584,13.05498218536377,-0.10336034744977951,0.006374379154294729,0.10836965590715408,-0.02056610956788063,-0.03267975151538849,-0.015379342250525951,0.07536033540964127,-0.035555966198444366,-0.07305216789245605,-0.036456044763326645,-3.832788206636906e-05,13.12529468536377,6.754286766052246,6.371007919311523,1819.0,1788.0,0.006397473160177469,-0.2004360556602478,0.01171044446527958,-0.04631543159484863,0.11639416962862015,-0.028423955664038658,0.14631178975105286,0.03718336671590805,0.0568687804043293,0.11786414682865143,0.07291208952665329,0.03930766135454178,-0.08148017525672913,-3.832787479041144e-05,1.0,0.24364373087882996,0.8389471769332886,0,0.30000001192092896,0,1,1,0,0,0.0,0.0,0,4073978281,4291,218
827477062,5,428,11121,5920,201283372,201284,196763,316,-7483,10306,1469,-190,179,4,27.46875,-0.0333096906542778,0.13969862461090088,1.0120863914489746,-0.2374483346939087,6.944081783294678,-0.1728668212890625,1.2734490633010864,3.951476573944092,8.746692657470703,1578,1500,2011,1500,2000,1503,1000,1000,1940,1510,1479,1811,1792,1494,1480,794,746,8090,8127,0,,,,,1,1,1,1,1,1,1,0,1,1,0,0,stabilized_mix,-0.3058180809020996,-0.3165532648563385,0.7451915144920349,0.06775689125061035,-0.024285724386572838,0.0009383611031807959,0.0,0.12480000406503677,-0.06775689125061035,0.14908573031425476,-0.034466225653886795,0.08743899315595627,-0.033878445625305176,0.07454286515712738,-0.0005877786315977573,0.012896127067506313,0.0,0.0,1.0,-0.033878445625305176,0.07454286515712738,0.236532062292099,-0.0005877786315977573,0.012896127067506313,0.0,-0.034466225653886795,0.08743899315595627,0.236532062292099,-0.93016517162323,-0.16483700275421143,13.053424835205078,-0.07113807648420334,0.01259526889771223,0.06651598960161209,-0.016335681080818176,-0.033681631088256836,0.0011229210067540407,0.0327971950173378,-0.015228341333568096,-0.07157203555107117,0.001508547575213015,-2.4522189050912857e-05,13.087562561035156,6.666391849517822,6.421170234680176,1811.0,1792.0,0.009404458105564117,-0.206338033080101,-0.0005110572674311697,-0.021305207163095474,0.11690598726272583,-0.022512655705213547,0.08970277011394501,0.03671831637620926,-0.004144255071878433,0.12119708955287933,-0.00301709515042603,0.01678951270878315,-0.035402458161115646,-2.4522219973732717e-05,1.0,0.1061115711927414,0.8365353941917419,0,0.30000001192092896,0,1,1,0,0,0.0,0.0,0,1737988111,4292,219
827477062,5,428,11122,5920,201287405,201288,196767,304,3121,6182,2741,-333,-246,105,27.375,-0.002879098057746887,-0.05048257112503052,0.8557623028755188,-0.7464128732681274,5.096963405609131,-1.7525492906570435,1.3582485914230347,3.613236904144287,8.74880599975586,1578,1500,2011,1500,2000,1503,1000,1000,1940,1508,1474,1810,1794,1494,1480,798,750,8090,8127,0,,,,,1,1,1,1,1,1,1,0,1,1,0,0,stabilized_mix,-0.3508659601211548,-0.2820230722427368,0.8059393763542175,0.0658731609582901,-0.02515140362083912,0.0040062121115624905,0.0,0.12480000406503677,-0.0658731609582901,0.14995141327381134,-0.03354094177484512,0.0879092738032341,-0.03293658047914505,0.07497570663690567,-0.0006043626926839352,0.012933566235005856,0.0,0.0,1.0,-0.03293658047914505,0.07497570663690567,0.236532062292099,-0.0006043626926839352,0.012933566235005856,0.0,-0.03354094177484512,0.0879092738032341,0.236532062292099,-0.851737380027771,-0.1838390976190567,13.058524131774902,-0.06513236463069916,0.014047316275537014,0.06534872204065323,-0.016285348683595657,-0.02471984177827835,0.0035317481961101294,0.04057735204696655,-0.012877038680016994,-0.07164579629898071,0.015293877571821213,-1.9723200239241123e-05,13.087563514709473,6.642397880554199,6.445165634155273,1810.0,1794.0,0.009669803082942963,-0.2069370597600937,-0.0018769196467474103,-0.02568555250763893,0.11693917959928513,-0.022444579750299454,0.08813409507274628,0.03683531656861305,-0.013027362525463104,0.08895879238843918,-0.030587755143642426,0.014198304153978825,-0.04379945993423462,-1.9723171135410666e-05,1.0,0.1312755048274994,0.8365354537963867,0,0.30000001192092896,0,1,1,0,0,0.0,0.0,0,1530729746,4292,219
827477062,5,428,11123,5920,201291437,201292,196771,316,4101,6282,-3489,107,34,-50,27.46875,0.026403911411762238,0.007500499486923218,0.9130986928939819,0.542870044708252,1.439354658126831,2.688429117202759,1.4955352544784546,3.2111968994140625,8.751752853393555,1578,1500,2011,1500,2000,1503,1000,1000,1940,1516,1460,1815,1789,1494,1480,802,754,8090,8127,0,,,,,1,1,1,1,1,1,1,0,1,1,0,0,stabilized_mix,-0.442129909992218,-0.3430388271808624,0.7177737951278687,0.061783649027347565,-0.025046706199645996,0.006975843105465174,0.0,0.12480000406503677,-0.061783649027347565,0.14984670281410217,-0.03151201829314232,0.08789443224668503,-0.030891824513673782,0.07492335140705109,-0.0006201937794685364,0.012971079908311367,0.0,0.0,1.0,-0.030891824513673782,0.07492335140705109,0.24203866720199585,-0.0006201937794685364,0.012971079908311367,0.0,-0.03151201829314232,0.08789443224668503,0.24203866720199585,-0.7569196820259094,-0.21552415192127228,13.056328773498535,-0.05790857598185539,0.016478093340992928,0.06928673386573792,-0.023298513144254684,-0.006985599175095558,-0.0025706139858812094,0.062263987958431244,-0.025817595422267914,-0.07174867391586304,-0.02346096932888031,-3.332342021167278e-05,13.080026626586914,6.706630229949951,6.373396396636963,1815.0,1789.0,0.009923100471496582,-0.20753727853298187,0.005746576935052872,-0.03786526620388031,0.116688571870327,-0.03208990395069122,0.09335934370756149,0.036956727504730225,0.009474869817495346,0.025121478363871574,0.04692193865776062,0.028445206582546234,-0.06712851673364639,-3.332337291794829e-05,1.0,0.20136359333992004,0.836053729057312,0,0.30000001192092896,0,1,1,0,0,0.0,0.0,0,819385895,4292,219
827477062,5,428,11124,5920,201295467,201296,196775,324,-5732,9610,-871,-140,313,-19,27.53125,0.008235173299908638,0.1382526159286499,1.0333759784698486,0.2263163924217224,4.7241973876953125,3.4390008449554443,1.5374422073364258,2.9789109230041504,8.756738662719727,1578,1500,2011,1500,2000,1503,1000,1000,1940,1515,1481,1816,1788,1494,1480,806,758,8090,8127,0,,,,,1,1,1,1,1,1,1,0,1,1,0,0,stabilized_mix,-0.4712592363357544,-0.3391840159893036,0.6796205639839172,0.05953149497509003,-0.02578514814376831,0.009961919859051704,0.0,0.12480000406503677,-0.05953149497509003,0.1505851447582245,-0.030400969088077545,0.08830125629901886,-0.029765747487545013,0.07529257237911224,-0.0006352223572321236,0.013008680194616318,0.0,0.0,1.0,-0.029765747487545013,0.07529257237911224,0.24203866720199585,-0.0006352223572321236,0.013008680194616318,0.0,-0.030400969088077545,0.08830125629901886,0.24203866720199585,-0.70238196849823,-0.22483490407466888,13.059218406677246,-0.05373261123895645,0.017190024256706238,0.05207980424165726,-0.02314751222729683,-0.022929400205612183,-0.0010725872125476599,0.029122840613126755,-0.02399359829723835,-0.07192271947860718,-0.030010944232344627,-3.567675594240427e-05,13.080026626586914,6.71839714050293,6.361629486083984,1816.0,1788.0,0.010163557715713978,-0.20813888311386108,0.004504162352532148,-0.018707290291786194,0.11681751161813736,-0.03188174217939377,0.07020224630832672,0.03676263242959976,0.0039499662816524506,0.08245279639959335,0.060021888464689255,0.026435768231749535,-0.03141395375132561,-3.567678140825592e-05,1.0,0.09422730654478073,0.836053729057312,0,0.30000001192092896,0,1,1,0,0,0.0,0.0,0,3062111607,4292,219
827477062,5,428,11126,5921,201303536,201304,196783,308,5091,6825,-3077,113,-62,38,27.40625,0.06280159950256348,-0.007723100483417511,0.905802309513092,-0.10680750012397766,-0.41285383701324463,3.634145498275757,1.7582969665527344,2.584650993347168,8.783029556274414,1578,1500,2011,1500,2000,1503,1000,1000,1940,1517,1460,1816,1787,1494,1480,814,766,8090,8127,0,,,,,1,1,1,1,1,1,1,0,1,1,0,0,stabilized_mix,-0.42704665660858154,-0.36050844192504883,0.6468648314476013,0.05299773067235947,-0.02659124881029129,0.015453054569661617,0.0,0.12480000406503677,-0.05299773067235947,0.15139125287532806,-0.027161914855241776,0.08877990394830704,-0.026498865336179733,0.07569562643766403,-0.000663048995193094,0.013084279373288155,0.0,0.0,1.0,-0.026498865336179733,0.07569562643766403,0.24428801238536835,-0.000663048995193094,0.013084279373288155,0.0,-0.027161914855241776,0.08877990394830704,0.24428801238536835,-0.6078271269798279,-0.2752416133880615,13.059910774230957,-0.046507883816957474,0.021049410104751587,0.06118301302194595,-0.026594169437885284,0.0020049589220434427,0.000506932265125215,0.06319635361433029,-0.026107612997293472,-0.07284045219421387,-0.031713902950286865,-3.659399226307869e-05,13.076944351196289,6.721441745758057,6.355502128601074,1816.0,1787.0,0.010608783923089504,-0.20934846997261047,0.005880529526621103,-0.037921059876680374,0.11667641997337341,-0.03661663830280304,0.08243462443351746,0.037595633417367935,-0.001864142483100295,-0.007205658592283726,0.06342780590057373,0.028759082779288292,-0.06811539083719254,-3.6594021366909146e-05,1.0,0.2043735682964325,0.8358567357063293,0,0.30000001192092896,0,1,1,0,0,0.0,0.0,0,1937729605,4292,219
827477062,5,428,11127,5921,201307567,201308,196787,336,-3746,8096,-2149,-50,428,-87,27.625,0.028667137026786804,0.1554310917854309,1.0271683931350708,0.9563151001930237,1.6278350353240967,7.269905090332031,1.8420662879943848,2.3853135108947754,8.797277450561523,1578,1500,2011,1500,2000,1503,1000,1000,1940,1523,1474,1821,1783,1494,1480,818,770,8090,8127,0,,,,,1,1,1,1,1,1,1,0,1,1,0,0,stabilized_mix,-0.45843085646629333,-0.3919951319694519,0.5707188844680786,0.05082324892282486,-0.027415258809924126,0.018019255250692368,0.0,0.12480000406503677,-0.05082324892282486,0.15221525728702545,-0.026087520644068718,0.08922990411520004,-0.02541162446141243,0.07610762864351273,-0.0006758962408639491,0.013122274540364742,0.0,0.0,1.0,-0.02541162446141243,0.07610762864351273,0.24428801238536835,-0.0006758962408639491,0.013122274540364742,0.0,-0.026087520644068718,0.08922990411520004,0.24428801238536835,-0.5608035326004028,-0.29401546716690063,13.061606407165527,-0.042908910661935806,0.022485390305519104,0.049186818301677704,-0.032006241381168365,-0.007905986160039902,-0.004528834484517574,0.04117416590452194,-0.03637329488992691,-0.07333779335021973,-0.06344188749790192,-4.787289071828127e-05,13.076945304870605,6.777836799621582,6.299108028411865,1821.0,1783.0,0.010814339853823185,-0.20995639264583588,0.011692260392010212,-0.02510218136012554,0.11661355197429657,-0.04406929761171341,0.06626445055007935,0.03756848722696304,0.016690846532583237,0.028411081060767174,0.12688377499580383,0.040063414722681046,-0.04438097029924393,-4.787288708030246e-05,1.0,0.13320349156856537,0.8358567953109741,0,0.30000001192092896,0,1,1,0,0,0.0,0.0,0,3826751878,4292,219
827477062,5,428,11128,5921,201311601,201312,196791,332,-3111,9807,5202,-96,45,82,27.59375,-0.06179179251194,-0.0030580535531044006,0.9115264415740967,-1.8097426891326904,-0.34752678871154785,2.072782516479492,1.7588430643081665,2.183253288269043,8.816448211669922,1578,1500,2011,1500,2000,1503,1000,1000,1940,1508,1466,1814,1789,1494,1480,822,774,8090,8127,0,,,,,1,1,1,1,1,1,1,0,1,1,0,0,stabilized_mix,-0.45072633028030396,-0.28705957531929016,0.6476847529411316,0.047234393656253815,-0.02736586518585682,0.020452532917261124,0.0,0.12480000406503677,-0.047234393656253815,0.15216587483882904,-0.024305211380124092,0.0892433300614357,-0.023617196828126907,0.07608293741941452,-0.000688015075866133,0.013160393573343754,0.0,0.0,1.0,-0.023617196828126907,0.07608293741941452,0.24442006647586823,-0.000688015075866133,0.013160393573343754,0.0,-0.024305211380124092,0.0892433300614357,0.24442006647586823,-0.5122696757316589,-0.27544811367988586,13.063817977905273,-0.03919278085231781,0.021065501496195793,0.05143026262521744,-0.020673967897892,0.0016861790791153908,0.008572308346629143,0.0531727597117424,-0.012110049836337566,-0.07400697469711304,-0.018088439479470253,-3.223342355340719e-05,13.076759338378906,6.6995463371276855,6.377212047576904,1814.0,1789.0,0.011008241213858128,-0.21056629717350006,-0.0022971294820308685,-0.03192450478672981,0.11695632338523865,-0.02846614271402359,0.06932330131530762,0.038033563643693924,-0.031585969030857086,-0.006065486464649439,0.036176878958940506,0.013339824043214321,-0.05733616650104523,-3.2233394449576735e-05,1.0,0.17198799550533295,0.835844874382019,0,0.30000001192092896,0,1,1,0,0,0.0,0.0,0,4203762266,4292,219
827477062,5,428,11129,5921,201315636,201316,196795,334,6342,4854,-3061,188,-6,119,27.609375,0.06502162665128708,-0.043318718671798706,0.8905746936798096,-0.6728140115737915,-2.922517776489258,6.104434490203857,1.985390305519104,2.0112786293029785,8.846429824829102,1578,1500,2011,1500,2000,1503,1000,1000,1940,1517,1455,1819,1784,1494,1480,826,778,8090,8127,0,,,,,1,1,1,1,1,1,1,0,1,1,0,0,stabilized_mix,-0.45047229528427124,-0.37374091148376465,0.5464010238647461,0.044939953833818436,-0.028407886624336243,0.022610509768128395,0.0,0.12480000406503677,-0.044939953833818436,0.1532078981399536,-0.023169368505477905,0.0898025780916214,-0.022469976916909218,0.0766039490699768,-0.0006993912975303829,0.013198626227676868,0.0,0.0,1.0,-0.022469976916909218,0.0766039490699768,0.24442006647586823,-0.0006993912975303829,0.013198626227676868,0.0,-0.023169368505477905,0.0898025780916214,0.24442006647586823,-0.4713326692581177,-0.32662972807884216,13.064183235168457,-0.03606259077787399,0.024980472400784492,0.056676946580410004,-0.029436826705932617,0.014188111759722233,0.003186602843925357,0.07095254212617874,-0.02649829536676407,-0.07505351305007935,-0.05327124148607254,-4.4913613237440586e-05,13.076762199401855,6.762948989868164,6.313813209533691,1819.0,1784.0,0.011190260760486126,-0.2111780196428299,0.006094872020184994,-0.04193054884672165,0.11663766205310822,-0.04053162783384323,0.07636816799640656,0.038811035454273224,-0.011742820031940937,-0.05100755766034126,0.10654248297214508,0.02918945625424385,-0.07646016776561737,-4.491366053116508e-05,1.0,0.22941681742668152,0.8358450531959534,0,0.30000001192092896,0,1,1,0,0,0.0,0.0,0,2369749504,4292,219
827477062,5,428,11140,5931,201360004,201360,196839,330,6759,3100,7382,50,-51,301,27.578125,-0.14636757969856262,-0.20477482676506042,0.7567613124847412,-3.55047869682312,-4.8120856285095215,5.684123992919922,1.5455272197723389,-1.265155553817749,9.211294174194336,1578,1500,2011,1500,2000,1503,1000,1000,1940,1495,1493,1821,1783,1494,1480,870,822,8090,8127,0,,,,,1,1,1,1,1,1,1,0,1,1,0,0,stabilized_mix,-0.8426398038864136,-0.215066596865654,0.518454909324646,0.006006814539432526,-0.03237241506576538,0.04279286786913872,0.0,0.12480000406503677,-0.006006814539432526,0.15717241168022156,-0.003771948628127575,0.09221164137125015,-0.003003407269716263,0.07858620584011078,-0.0007685413584113121,0.013625438325107098,0.0,0.0,1.0,-0.003003407269716263,0.07858620584011078,0.24226811528205872,-0.0007685413584113121,0.013625438325107098,0.0,-0.003771948628127575,0.09221164137125015,0.24226811528205872,0.30386224389076233,-0.2274569720029831,13.074189186096191,0.02323720045387745,0.017390955239534378,-0.013013659045100212,-0.009125979617238045,0.023351244628429413,0.016815047711133957,0.010626403614878654,0.007306776009500027,-0.08778968453407288,-0.04960333928465843,-4.808756057173014e-05,13.079697608947754,6.7802863121032715,6.299410820007324,1821.0,1783.0,0.012296661734580994,-0.21800701320171356,-0.013796797022223473,-0.005409112200140953,0.11695025861263275,-0.012568132020533085,-0.017552215605974197,0.043447840958833694,-0.06196754425764084,-0.08398673683404922,0.09920667856931686,-0.008051772601902485,-0.01146562397480011,-4.808755693375133e-05,1.0,0.034383438527584076,0.8360326886177063,0,0.30000001192092896,0,1,1,0,0,0.0,0.0,0,3335541605,4293,220
827477062,5,428,11141,5931,201364037,201364,196843,320,2238,7440,-7475,271,507,-33,27.5,0.041481077671051025,0.13330845534801483,1.0304062366485596,0.49762433767318726,-7.335964202880859,16.08493423461914,1.9766067266464233,-1.572285532951355,9.263551712036133,1578,1500,2011,1500,2000,1503,1000,1000,1940,1524,1485,1835,1771,1494,1480,874,826,8090,8127,0,,,,,1,1,1,1,1,1,1,0,1,1,0,0,stabilized_mix,-0.9034038782119751,-0.4216698110103607,0.31791815161705017,0.0018032555235549808,-0.031980592757463455,0.04435807093977928,0.0,0.12480000406503677,-0.0018032555235549808,0.15678060054779053,-0.0016708634793758392,0.09205486625432968,-0.0009016277617774904,0.07839030027389526,-0.0007692357175983489,0.013664567843079567,0.0,0.0,1.0,-0.0009016277617774904,0.07839030027389526,0.24310728907585144,-0.0007692357175983489,0.013664567843079567,0.0,-0.0016708634793758392,0.09205486625432968,0.24310728907585144,0.3768301010131836,-0.3263989984989166,13.06904411315918,0.028825804591178894,0.024959411472082138,-0.011244789697229862,-0.033142343163490295,0.03563027083873749,-0.002357295248657465,0.024264439940452576,-0.0371546670794487,-0.08961382508277893,-0.1403675228357315,-8.049351163208485e-05,13.0785493850708,6.941742420196533,6.136806964874268,1835.0,1771.0,0.012307771481573582,-0.21863308548927307,0.012085783295333385,-0.01277604978531599,0.11669759452342987,-0.045638009905815125,-0.015156476758420467,0.04477766156196594,0.00868518278002739,-0.1280367225408554,0.280735045671463,0.040927860885858536,-0.026162337511777878,-8.049346797633916e-05,1.0,0.1202080026268959,0.8359593152999878,0,0.30000001192092896,0,1,1,0,0,0.0,0.0,0,3500273990,4293,220
827477062,5,428,11142,5931,201367059,201368,196846,324,-6755,16419,-743,100,318,153,27.53125,-0.11536316573619843,-0.044181421399116516,0.9847919940948486,-3.727487325668335,-4.186831951141357,8.50959587097168,1.4537938833236694,-1.897672176361084,9.291500091552734,1578,1500,2011,1500,2000,1503,1000,1000,1940,1493,1506,1825,1779,1494,1480,878,830,8090,8127,0,,,,,1,1,1,1,1,1,1,0,1,1,0,0,stabilized_mix,-0.9632717967033386,-0.15337830781936646,0.4632222354412079,-0.001071673003025353,-0.03226315230131149,0.04566138610243797,0.0,0.12480000406503677,0.001071673003025353,0.15706315636634827,-0.0002332562580704689,0.09223540872335434,0.0005358365015126765,0.07853157818317413,-0.0007690927595831454,0.013703832402825356,0.0,0.0,1.0,0.0005358365015126765,0.07853157818317413,0.24310728907585144,-0.0007690927595831454,0.013703832402825356,0.0,-0.0002332562580704689,0.09223540872335434,0.24310728907585144,0.45310235023498535,-0.2071557343006134,13.069059371948242,0.034655969589948654,0.015840010717511177,-0.02987065538764,-0.006501436233520508,0.02031923644244671,0.017656344920396805,-0.00909482128918171,0.010655165649950504,-0.09058940410614014,-0.07426023483276367,-5.769741255789995e-05,13.078551292419434,6.827763080596924,6.250788688659668,1825.0,1779.0,0.012305484153330326,-0.2192613184452057,-0.01580159366130829,0.006265650503337383,0.11678038537502289,-0.008954052813351154,-0.04028083384037018,0.04453817754983902,-0.0650569275021553,-0.07307400554418564,0.14852046966552734,-0.011739074252545834,0.009813068434596062,-5.7697372540133074e-05,1.0,0.034478478133678436,0.8359594345092773,0,0.30000001192092896,0,1,1,0,0,0.0,0.0,0,2816697839,4293,220
827477062,5,428,11143,5931,201371128,201372,196850,338,10204,152,801,131,69,106,27.640625,0.0008910801261663437,-0.06890453398227692,0.8830487728118896,-0.6283334493637085,-6.62790060043335,12.276778221130371,1.883585810661316,-2.090406656265259,9.350584030151367,1578,1500,2011,1500,2000,1503,1000,1000,1940,1516,1496,1830,1774,1494,1480,882,834,8090,8127,0,,,,,1,1,1,1,1,1,1,0,1,1,0,0,stabilized_mix,-0.956093966960907,-0.33104705810546875,0.3414725959300995,-0.005234995391219854,-0.03297474607825279,0.04703127220273018,0.0,0.12480000406503677,0.005234995391219854,0.15777474641799927,0.0018494585528969765,0.09263058751821518,0.002617497695609927,0.07888737320899963,-0.0007680391427129507,0.01374321524053812,0.0,0.0,1.0,0.002617497695609927,0.07888737320899963,0.24310728907585144,-0.0007680391427129507,0.01374321524053812,0.0,0.0018494585528969765,0.09263058751821518,0.24310728907585144,0.5000889301300049,-0.30507785081863403,13.065430641174316,0.03825705870985985,0.023328684270381927,-0.025867927819490433,-0.026728395372629166,0.0321764200925827,0.0029756806325167418,0.006417547352612019,-0.02489001676440239,-0.09265181422233582,-0.1071351021528244,-6.992544513195753e-05,13.078557014465332,6.888906002044678,6.1896514892578125,1830.0,1774.0,0.012288626283407211,-0.21989144384860992,0.004867827985435724,-0.0022227789741009474,0.11684265732765198,-0.036806296557188034,-0.03487599641084671,0.04583203047513962,-0.010966487228870392,-0.11567869037389755,0.2142702043056488,0.0274214930832386,-0.006921827327460051,-6.992541602812707e-05,1.0,0.0805388018488884,0.835959792137146,0,0.30000001192092896,0,1,1,0,0,0.0,0.0,0,735649901,4293,220
827477062,5,428,11144,5931,201375153,201376,196854,312,-4843,8053,1363,323,778,-125,27.4375,-0.11977691948413849,0.22071212530136108,1.0598007440567017,0.0394439697265625,-6.6812615394592285,15.481398582458496,1.630997896194458,-2.5596487522125244,9.391813278198242,1578,1500,2011,1500,2000,1503,1000,1000,1940,1516,1503,1835,1771,1494,1480,886,838,8090,8127,0,,,,,1,1,1,1,1,1,1,0,1,1,0,0,stabilized_mix,-1.059933066368103,-0.31105905771255493,0.29815852642059326,-0.009155778214335442,-0.03234916180372238,0.04854823276400566,0.0,0.12480000406503677,0.009155778214335442,0.15714916586875916,0.0038118723314255476,0.09235706180334091,0.004577889107167721,0.07857458293437958,-0.0007660168339498341,0.013782478868961334,0.0,0.0,1.0,0.004577889107167721,0.07857458293437958,0.24365268647670746,-0.0007660168339498341,0.013782478868961334,0.0,0.0038118723314255476,0.09235706180334091,0.24365268647670746,0.6097380518913269,-0.24814555048942566,13.061229705810547,0.046649184077978134,0.01897568814456463,-0.0364619717001915,-0.0236364658921957,0.03243767470121384,-0.00018575532885733992,-0.004030290991067886,-0.025271113961935043,-0.09409099817276001,-0.13510069251060486,-8.02171416580677e-05,13.077808380126953,6.939990043640137,6.137818813323975,1835.0,1771.0,0.012256269343197346,-0.22051966190338135,0.00508260540664196,0.003984097391366959,0.11687057465314865,-0.032548245042562485,-0.04915202409029007,0.04642876982688904,0.0006884271278977394,-0.11661001294851303,0.2702013850212097,0.027840325608849525,0.004348036367446184,-8.02170907263644e-05,1.0,0.08177362382411957,0.8359119296073914,0,0.30000001192092896,0,1,1,0,0,0.0,0.0,0,2934977388,4293,220
827477062,5,428,11145,5931,201379196,201380,196858,352,-4311,14457,-95,56,83,214,27.75,-0.055326711386442184,-0.08564890921115875,0.9530395269393921,-4.020610809326172,-3.8399746417999268,4.983318328857422,1.344010829925537,-2.570786952972412,9.433835983276367,1578,1500,2011,1500,2000,1503,1000,1000,1940,1490,1518,1821,1783,1494,1480,890,842,8090,8127,0,,,,,1,1,1,1,1,1,1,0,1,1,0,0,stabilized_mix,-0.9316608309745789,-0.11155645549297333,0.38481611013412476,-0.013100000098347664,-0.03285032883286476,0.04977218434214592,0.0,0.12480000406503677,0.013100000098347664,0.15765033662319183,0.005787018220871687,0.09264705330133438,0.006550000049173832,0.07882516831159592,-0.0007629817118868232,0.013821885921061039,0.0,0.0,1.0,0.006550000049173832,0.07882516831159592,0.24365268647670746,-0.0007629817118868232,0.013821885921061039,0.0,0.005787018220871687,0.09264705330133438,0.24365268647670746,0.6150938272476196,-0.18278537690639496,13.06206226348877,0.04705534130334854,0.01397720817476511,-0.047254957258701324,-0.0027719491627067327,0.01863665133714676,0.019044116139411926,-0.02831749990582466,0.01600491814315319,-0.09555786848068237,-0.043487656861543655,-4.866591189056635e-05,13.077813148498535,6.782236099243164,6.295577049255371,1821.0,1783.0,0.01220770739018917,-0.22115017473697662,-0.018985990434885025,0.017904523760080338,0.11654893308877945,-0.003816494718194008,-0.06370124220848083,0.046714670956134796,-0.07017289847135544,-0.06702020019292831,0.08697531372308731,-0.017633255571126938,0.030545802786946297,-4.8665930080460384e-05,1.0,0.09162411838769913,0.8359122276306152,0,0.30000001192092896,0,1,1,0,0,0.0,0.0,0,308837686,4293,220
827477062,5,428,11146,5931,201383208,201384,196862,330,9365,1071,-1261,175,115,64,27.578125,0.0512482225894928,-0.036449313163757324,0.9086438417434692,-0.00908052921295166,-6.8862762451171875,11.2167329788208,1.7375622987747192,-2.5651187896728516,9.478729248046875,1578,1500,2011,1500,2000,1503,1000,1000,1940,1517,1502,1829,1775,1494,1480,894,846,8090,8127,0,,,,,1,1,1,1,1,1,1,0,1,1,0,0,stabilized_mix,-0.8407911658287048,-0.2944086790084839,0.2488212138414383,-0.016302600502967834,-0.032187569886446,0.050799984484910965,0.0,0.12480000406503677,0.016302600502967834,0.15698757767677307,0.007392176426947117,0.09235487878322601,0.008151300251483917,0.07849378883838654,-0.0007591239409521222,0.013861087150871754,0.0,0.0,1.0,0.008151300251483917,0.07849378883838654,0.24533715844154358,-0.0007591239409521222,0.013861087150871754,0.0,0.007392176426947117,0.09235487878322601,0.24533715844154358,0.6158916354179382,-0.27320706844329834,13.058136940002441,0.04713042452931404,0.02089608646929264,-0.036394864320755005,-0.02554675191640854,0.033441945910453796,4.1944753320422024e-05,-0.002951712114736438,-0.026586979627609253,-0.09712493419647217,-0.09788446128368378,-6.825325544923544e-05,13.075507164001465,6.879019737243652,6.1964874267578125,1829.0,1775.0,0.012145983055233955,-0.22177739441394806,0.005891773849725723,0.00374727975577116,0.11686551570892334,-0.03517257422208786,-0.049051038920879364,0.04792274162173271,-0.0001584851270308718,-0.12018819153308868,0.19576892256736755,0.029282422736287117,0.003182802814990282,-6.82532845530659e-05,1.0,0.08602453768253326,0.8357648253440857,0,0.30000001192092896,0,1,1,0,0,0.0,0.0,0,2784298096,4293,220
827477062,5,428,11147,5931,201387226,201388,196866,334,-5283,7773,728,371,784,-132,27.609375,-0.09042318910360336,0.18843570351600647,1.047792673110962,-0.09910297393798828,-7.1994524002075195,13.667686462402344,1.4042956829071045,-2.8018579483032227,9.51168441772461,1578,1500,2011,1500,2000,1503,1000,1000,1940,1512,1504,1833,1772,1494,1480,898,850,8090,8127,0,,,,,1,1,1,1,1,1,1,0,1,1,0,0,stabilized_mix,-0.8874170184135437,-0.22276189923286438,0.25409427285194397,-0.01974852755665779,-0.032214440405368805,0.052042439579963684,0.0,0.12480000406503677,0.01974852755665779,0.15701444447040558,0.009119861759245396,0.09240756183862686,0.009874263778328896,0.07850722223520279,-0.0007544021354988217,0.013900336809456348,0.0,0.0,1.0,0.009874263778328896,0.07850722223520279,0.24533715844154358,-0.0007544021354988217,0.013900336809456348,0.0,0.009119861759245396,0.09240756183862686,0.24533715844154358,0.6722592711448669,-0.19751781225204468,13.056723594665527,0.05144216865301132,0.015106509439647198,-0.04071876406669617,-0.018080584704875946,0.03495675325393677,0.0004685827880166471,-0.005739240907132626,-0.018988989293575287,-0.09827530384063721,-0.11927306652069092,-7.614190690219402e-05,13.075510025024414,6.918464183807373,6.157045364379883,1833.0,1772.0,0.012070434167981148,-0.22240538895130157,0.0014875732595100999,0.005485281813889742,0.11685798317193985,-0.024893581867218018,-0.0548846498131752,0.048470333218574524,-0.0017296731239184737,-0.12565414607524872,0.23854613304138184,0.020915891975164413,0.006190576124936342,-7.614192873006687e-05,1.0,0.061445724219083786,0.83576500415802,0,0.30000001192092896,0,1,1,0,0,0.0,0.0,0,3045253321,4293,220
827477062,5,428,11159,5942,201435626,201436,196914,344,-6165,11908,182,245,645,-101,27.6875,-0.03882845863699913,0.08343102037906647,1.062066674232483,0.9683356285095215,-5.508005142211914,12.250591278076172,1.01350736618042,-3.6371445655822754,10.075851440429688,1578,1500,2011,1500,2000,1503,1000,1000,1940,1512,1526,1833,1771,1494,1480,946,898,8090,8127,0,,,,,1,1,1,1,1,1,1,0,1,1,0,0,stabilized_mix,-0.5981431603431702,0.004834435880184174,0.1843525469303131,-0.05067380517721176,-0.026769980788230896,0.062228139489889145,0.0,0.12480000406503677,0.05067380517721176,0.15156999230384827,0.024692077189683914,0.09014974534511566,0.02533690258860588,0.07578499615192413,-0.0006448249914683402,0.014364749193191528,0.0,0.0,1.0,0.02533690258860588,0.07578499615192413,0.2538151741027832,-0.0006448249914683402,0.014364749193191528,0.0,0.024692077189683914,0.09014974534511566,0.2538151741027832,0.8833869099617004,-0.11512770503759384,13.03351879119873,0.06767457723617554,0.008812754414975643,-0.06773119419813156,-0.013095150701701641,0.02676434814929962,-0.0045911530032753944,-0.04109746962785721,-0.018634255975484848,-0.11796844005584717,-0.10690657794475555,-7.870630361139774e-05,13.063929557800293,6.925496578216553,6.138433456420898,1833.0,1771.0,0.010317199863493443,-0.22983598709106445,0.0014440728118643165,0.02741985395550728,0.11687362939119339,-0.018014337867498398,-0.09116747975349426,0.058137550950050354,0.016900645568966866,-0.09613282233476639,0.2138131558895111,0.02050584927201271,0.044277165085077286,-7.870625267969444e-05,1.0,0.13295942544937134,0.8350248336791992,0,0.30000001192092896,0,1,1,0,0,0.0,0.0,0,2346508282,4294,221
827477062,5,428,11160,5942,201439660,201440,196918,316,3684,7881,1439,52,18,40,27.46875,0.016969401389360428,-0.1088954284787178,0.9020612239837646,1.067878246307373,-5.196956157684326,8.84443187713623,0.9625933170318604,-3.36834716796875,10.130033493041992,1578,1500,2011,1500,2000,1503,1000,1000,1940,1511,1524,1829,1774,1491,1480,2,902,8091,8127,1,89.19,-0.8099999999999999,,,1,1,1,1,1,1,1,0,1,1,0,0,stabilized_mix,-0.4514571726322174,0.02029024064540863,0.2608082890510559,-0.052527111023664474,-0.026401864364743233,0.06296806782484055,0.0,0.12480000406503677,0.052527111023664474,0.15120187401771545,0.02563175931572914,0.09000352025032043,0.026263555511832237,0.07560093700885773,-0.0006317970692180097,0.014402580447494984,0.0,0.0,1.0,0.026263555511832237,0.07560093700885773,0.2538151741027832,-0.0006317970692180097,0.014402580447494984,0.0,0.02563175931572914,0.09000352025032043,0.2538151741027832,0.8235681056976318,-0.1040862500667572,13.037528991699219,0.06308521330356598,0.007967538200318813,-0.06288476288318634,-0.012253860011696815,0.02525193989276886,-0.005063330754637718,-0.03773709386587143,-0.017963141202926636,-0.11985975503921509,-0.07718222588300705,-6.896466948091984e-05,13.06393051147461,6.876789093017578,6.187142372131348,1829.0,1774.0,0.010108753107488155,-0.23044128715991974,0.001099039101973176,0.025579087436199188,0.11686253547668457,-0.016857020556926727,-0.08465630561113358,0.059177570044994354,0.018637990579009056,-0.09070399403572083,0.1543644517660141,0.019767550751566887,0.040659572929143906,-6.896469130879268e-05,1.0,0.12209469825029373,0.835024893283844,0,0.30000001192092896,0,1,1,0,0,0.0,0.0,0,952526159,4294,221
827477062,5,428,11161,5942,201443695,201444,196922,322,282,4513,-65,313,589,-147,27.515625,-0.024408457800745964,0.06443454325199127,0.9557778835296631,3.547809600830078,-7.534590244293213,16.034574508666992,1.0826473236083984,-3.3251123428344727,10.18199348449707,1578,1500,2011,1500,2000,1503,1000,1000,1940,1527,1511,1839,1767,1491,1480,6,906,8091,8127,1,89.19,-0.8099999999999999,,,1,1,1,1,1,1,1,0,1,1,0,0,stabilized_mix,-0.4364369809627533,-0.05276791751384735,0.18169952929019928,-0.052534401416778564,-0.024989202618598938,0.06371685117483139,0.0,0.12480000406503677,0.052534401416778564,0.1497892141342163,0.025648441165685654,0.08933465927839279,0.026267200708389282,0.07489460706710815,-0.0006187598337419331,0.014440052211284637,0.0,0.0,1.0,0.026267200708389282,0.07489460706710815,0.2532727122306824,-0.0006187598337419331,0.014440052211284637,0.0,0.025648441165685654,0.08933465927839279,0.2532727122306824,0.8137381076812744,-0.13238444924354553,13.03862476348877,0.062328971922397614,0.010133191011846066,-0.053793542087078094,-0.024017564952373505,0.036641739308834076,-0.016822241246700287,-0.017948757857084274,-0.04254276305437088,-0.12167349457740784,-0.13992805778980255,-9.15605342015624e-05,13.064663887023926,6.9901347160339355,6.074529647827148,1839.0,1767.0,0.00990015733987093,-0.2310408353805542,0.015549070201814175,0.014382717199623585,0.1170041412115097,-0.03303883224725723,-0.07237837463617325,0.06048435717821121,0.06192095950245857,-0.1315034031867981,0.2798561155796051,0.04680945724248886,0.019329391419887543,-9.156054875347763e-05,1.0,0.13762877881526947,0.8350717425346375,0,0.30000001192092896,0,1,1,0,0,0.0,0.0,0,520772980,4294,221
827477062,5,428,11162,5942,201447728,201448,196926,318,-5356,11763,2556,128,538,-80,27.484375,-0.08945468068122864,0.05497674643993378,1.0662692785263062,1.5216931104660034,-4.260224342346191,11.603413581848145,0.871518075466156,-3.27439546585083,10.226083755493164,1578,1500,2011,1500,2000,1503,1000,1000,1940,1513,1528,1833,1771,1491,1480,10,910,8091,8127,1,89.19,-0.8099999999999999,,,1,1,1,1,1,1,1,0,1,1,0,0,stabilized_mix,-0.42736291885375977,0.04061433672904968,0.1992369443178177,-0.05391516909003258,-0.024335458874702454,0.06461960077285767,0.0,0.12480000406503677,0.05391516909003258,0.14913547039031982,0.02635221555829048,0.08904512226581573,0.02695758454501629,0.07456773519515991,-0.0006053692777641118,0.014477384276688099,0.0,0.0,1.0,0.02695758454501629,0.07456773519515991,0.2532727122306824,-0.0006053692777641118,0.014477384276688099,0.0,0.02635221555829048,0.08904512226581573,0.2532727122306824,0.8031588196754456,-0.08495112508535385,13.039674758911133,0.06151575595140457,0.006502404808998108,-0.06423179060220718,-0.012093271128833294,0.02070033550262451,-0.007215695455670357,-0.04375556856393814,-0.020002853125333786,-0.1232125461101532,-0.10125888139009476,-7.856497541069984e-05,13.06466293334961,6.925156593322754,6.139506816864014,1833.0,1771.0,0.009685908444225788,-0.23163814842700958,0.0023398702032864094,0.029117420315742493,0.1168975755572319,-0.016638990491628647,-0.0864686444401741,0.060921721160411835,0.02655855566263199,-0.07435493916273117,0.20251776278018951,0.02201489731669426,0.04714085906744003,-7.856499723857269e-05,1.0,0.141554594039917,0.8350716829299927,0,0.30000001192092896,0,1,1,0,0,0.0,0.0,0,4031129109,4294,221
827477062,5,428,11163,5942,201451763,201452,196930,330,3622,7408,-1438,120,26,8,27.578125,0.012324031442403793,-0.08013896644115448,0.9098105430603027,2.03244686126709,-5.9793901443481445,9.328827857971191,0.8854902386665344,-3.2512340545654297,10.280031204223633,1578,1500,2011,1500,2000,1503,1000,1000,1940,1516,1518,1831,1773,1491,1480,14,914,8091,8127,1,89.19,-0.8099999999999999,,,1,1,1,1,1,1,1,0,1,1,0,0,stabilized_mix,-0.4141514301300049,0.02326967939734459,0.2567005157470703,-0.053829602897167206,-0.023069847375154495,0.06538297235965729,0.0,0.12480000406503677,0.053829602897167206,0.14786985516548157,0.026322999969124794,0.08844941109418869,0.026914801448583603,0.07393492758274078,-0.0005918010720051825,0.014514484442770481,0.0,0.0,1.0,0.026914801448583603,0.07393492758274078,0.2529202997684479,-0.0005918010720051825,0.014514484442770481,0.0,0.026322999969124794,0.08844941109418869,0.2529202997684479,0.7978372573852539,-0.08899129927158356,13.040449142456055,0.06110556423664093,0.006811409257352352,-0.0574822798371315,-0.014097031205892563,0.029058124870061874,-0.009636507369577885,-0.02867462858557701,-0.024518504738807678,-0.1250956654548645,-0.08140937983989716,-7.227680180221796e-05,13.06513786315918,6.893953323364258,6.17118501663208,1831.0,1773.0,0.00946881715208292,-0.2322317510843277,0.005124619696289301,0.02047819457948208,0.11692412942647934,-0.019395779818296432,-0.07738851755857468,0.0619969516992569,0.03547288849949837,-0.10436004400253296,0.1628187596797943,0.026983650401234627,0.030895337462425232,-7.227676542242989e-05,1.0,0.09277848154306412,0.8351020812988281,0,0.30000001192092896,0,1,1,0,0,0.0,0.0,0,3650114631,4294,221
827477062,5,428,11164,5942,201455795,201456,196934,332,585,4285,-1352,304,491,-192,27.59375,-0.03862202540040016,0.05817965418100357,0.9645034074783325,4.249964237213135,-7.090186595916748,13.966280937194824,0.9782893657684326,-3.2672648429870605,10.326934814453125,1578,1500,2011,1500,2000,1503,1000,1000,1940,1529,1513,1837,1768,1491,1480,18,918,8091,8127,1,89.19,-0.8099999999999999,,,1,1,1,1,1,1,1,0,1,1,0,0,stabilized_mix,-0.4313815236091614,-0.037439025938510895,0.16710253059864044,-0.055243492126464844,-0.02249237336218357,0.06610400974750519,0.0,0.12480000406503677,0.055243492126464844,0.1472923755645752,0.0270436629652977,0.08819752186536789,0.027621746063232422,0.0736461877822876,-0.0005780828651040792,0.014551335014402866,0.0,0.0,1.0,0.027621746063232422,0.0736461877822876,0.2529202997684479,-0.0005780828651040792,0.014551335014402866,0.0,0.0270436629652977,0.08819752186536789,0.2529202997684479,0.8024836778640747,-0.11066931486129761,13.039998054504395,0.061462655663490295,0.008470684289932251,-0.0541866272687912,-0.02410145476460457,0.03448218107223511,-0.020151454955339432,-0.020534951239824295,-0.045651473104953766,-0.12673288583755493,-0.12187879532575607,-8.701405022293329e-05,13.065136909484863,6.967638969421387,6.097498416900635,1837.0,1768.0,0.009249325841665268,-0.23282136023044586,0.017461257055401802,0.01603512279689312,0.11705038696527481,-0.033155836164951324,-0.07289956510066986,0.06309658288955688,0.0741758719086647,-0.12374710291624069,0.24375759065151215,0.050231073051691055,0.022111322730779648,-8.701408660272136e-05,1.0,0.14768363535404205,0.8351020216941833,0,0.30000001192092896,0,1,1,0,0,0.0,0.0,0,4206206661,4294,221
827477062,5,428,11165,5942,201459823,201460,196938,344,-4729,12614,20,100,434,-86,27.6875,-0.014645424671471119,0.03968440368771553,1.0542021989822388,2.286043405532837,-4.2076416015625,9.181864738464355,0.8054776191711426,-3.1578660011291504,10.363859176635742,1578,1500,2011,1500,2000,1503,1000,1000,1940,1516,1527,1831,1773,1491,1480,22,922,8091,8127,1,89.19,-0.8099999999999999,,,1,1,1,1,1,1,1,0,1,1,0,0,stabilized_mix,-0.37741780281066895,0.03946191817522049,0.19917179644107819,-0.056567274034023285,-0.02187255583703518,0.06694179028272629,0.0,0.12480000406503677,0.056567274034023285,0.1466725617647171,0.027719616889953613,0.08792433142662048,0.028283637017011642,0.07333628088235855,-0.000564020941965282,0.014588048681616783,0.0,0.0,1.0,0.028283637017011642,0.07333628088235855,0.2529202997684479,-0.000564020941965282,0.014588048681616783,0.0,0.027719616889953613,0.08792433142662048,0.2529202997684479,0.7784966230392456,-0.0719299241900444,13.04172420501709,0.05962202325463295,0.0055055138655006886,-0.06190925091505051,-0.013339629396796227,0.02044626884162426,-0.01083972305059433,-0.04173742234706879,-0.02472223900258541,-0.12802180647850037,-0.08012688159942627,-7.285200990736485e-05,13.065135955810547,6.8968281745910645,6.168307781219482,1831.0,1773.0,0.009024335071444511,-0.23340877890586853,0.005209184251725674,0.028126118704676628,0.1169636994600296,-0.01835218444466591,-0.08333830535411835,0.06344431638717651,0.039898984134197235,-0.07343719899654388,0.16025376319885254,0.027207622304558754,0.04496334493160248,-7.28520390111953e-05,1.0,0.135025292634964,0.8351019620895386,0,0.30000001192092896,0,1,1,0,0,0.0,0.0,0,3740169920,4294,221
827477062,5,428,11166,5942,201463858,201464,196942,332,2254,8417,-1272,109,85,-50,27.59375,0.02735498920083046,-0.03455778583884239,0.9213781356811523,3.345170021057129,-6.081894874572754,8.42179012298584,0.8963640928268433,-3.0013246536254883,10.408409118652344,1578,1500,2011,1500,2000,1503,1000,1000,1940,1523,1514,1830,1773,1491,1480,26,926,8091,8127,1,89.19,-0.8099999999999999,,,1,1,1,1,1,1,1,0,1,1,0,0,stabilized_mix,-0.30595090985298157,-0.015389304608106613,0.23029720783233643,-0.056008607149124146,-0.02074493281543255,0.06760702282190323,0.0,0.12480000406503677,0.056008607149124146,0.14554493129253387,0.02745421975851059,0.08739692717790604,0.028004303574562073,0.07277246564626694,-0.000550083233974874,0.014624460600316525,0.0,0.0,1.0,0.028004303574562073,0.07277246564626694,0.25136107206344604,-0.000550083233974874,0.014624460600316525,0.0,0.02745421975851059,0.08739692717790604,0.25136107206344604,0.742574155330658,-0.09337291121482849,13.045809745788574,0.056859154254198074,0.007145622279495001,-0.051593244075775146,-0.01899617910385132,0.029561461880803108,-0.015858713537454605,-0.022421270608901978,-0.03557753562927246,-0.1295768916606903,-0.07349397987127304,-7.107481360435486e-05,13.067259788513184,6.889003753662109,6.178255558013916,1830.0,1773.0,0.008801331743597984,-0.2339913696050644,0.011697299778461456,0.017079802230000496,0.11699225753545761,-0.026137348264455795,-0.06945577263832092,0.06443217396736145,0.058384232223033905,-0.1061490923166275,0.14698795974254608,0.03915703669190407,0.024154558777809143,-7.107480632839724e-05,1.0,0.11510632187128067,0.8352376818656921,0,0.30000001192092896,0,1,1,0,0,0.0,0.0,0,4114718617,4294,221
827477062,5,428,11175,5950,201499187,201500,196977,314,1070,4150,578,234,387,-276,27.453125,-0.06280038505792618,0.04924861714243889,0.9643740057945251,7.3220391273498535,-4.929476261138916,11.232752799987793,0.7466755509376526,-2.6961162090301514,10.729375839233398,1579,1500,2011,1500,2000,1503,1000,1000,1940,1542,1517,1836,1769,1491,1480,62,962,8091,8127,1,89.19,-0.8099999999999999,,,1,1,1,1,1,1,1,0,1,1,0,0,stabilized_mix,-0.3682186007499695,-0.03243163973093033,0.11854197084903717,-0.05583524331450462,-0.01459822990000248,0.07311104983091354,0.0,0.12640000879764557,0.05583524331450462,0.1409982442855835,0.027492551133036613,0.0854443907737732,0.02791762165725231,0.07049912214279175,-0.0004250706697348505,0.01494526956230402,0.0,0.0,1.0,0.02791762165725231,0.07049912214279175,0.24935726821422577,-0.0004250706697348505,0.01494526956230402,-0.0,0.027492551133036613,0.0854443907737732,0.24935726821422577,0.6733735799789429,-0.0623357817530632,13.052468299865723,0.051544055342674255,0.0047694058157503605,-0.048932746052742004,-0.029839497059583664,0.02398880571126938,-0.03470988571643829,-0.026110008358955383,-0.06536070257425308,-0.1407807469367981,-0.09802425652742386,-8.358177728950977e-05,13.069974899291992,6.952896595001221,6.11707878112793,1836.0,1769.0,0.006801130715757608,-0.23912431299686432,0.02910582907497883,0.019443130120635033,0.11729185283184052,-0.04106341302394867,-0.06579133868217468,0.0703849345445633,0.12779368460178375,-0.0860355868935585,0.19604851305484772,0.07191536575555801,0.028091369196772575,-8.358174818567932e-05,1.0,0.21135903894901276,0.8354112505912781,0,0.30000001192092896,0,1,1,0,0,0.0,0.0,0,2272879368,4295,222
827477062,5,428,11176,5950,201503238,201504,196981,294,-3208,12179,632,22,322,-217,27.296875,-0.042053963989019394,0.024284638464450836,1.050639033317566,6.016992568969727,-1.7882994413375854,6.857804298400879,0.5929896831512451,-2.6780219078063965,10.759580612182617,1579,1500,2011,1500,2000,1503,1000,1000,1940,1532,1533,1830,1774,1491,1480,66,966,8091,8127,1,89.19,-0.8099999999999999,,,1,1,1,1,1,1,1,0,1,1,0,0,stabilized_mix,-0.34177166223526,0.03768223524093628,0.14629484713077545,-0.055069126188755035,-0.013563224114477634,0.0737164318561554,0.0,0.12640000879764557,0.055069126188755035,0.13996323943138123,0.027123194187879562,0.0849619209766388,0.027534563094377518,0.06998161971569061,-0.000411369459470734,0.014980302192270756,0.0,0.0,1.0,0.027534563094377518,0.06998161971569061,0.24372516572475433,-0.000411369459470734,0.014980302192270756,-0.0,0.027123194187879562,0.0849619209766388,0.24372516572475433,0.6690496206283569,-0.027991309762001038,13.060510635375977,0.05118216946721077,0.0021403920836746693,-0.05935661494731903,-0.02196107618510723,0.008689753711223602,-0.028504453599452972,-0.05124570429325104,-0.05065368860960007,-0.14183509349822998,-0.05984563007950783,-7.058819755911827e-05,13.077667236328125,6.891774654388428,6.185892581939697,1830.0,1774.0,0.006581911351531744,-0.2396848350763321,0.020442914217710495,0.03371570631861687,0.11745038628578186,-0.030242763459682465,-0.07990525662899017,0.07061946392059326,0.105016328394413,-0.031211713328957558,0.11969126015901566,0.055783309042453766,0.0551973432302475,-7.058824849082157e-05,1.0,0.16576127707958221,0.8359029293060303,0,0.30000001192092896,0,1,1,0,0,0.0,0.0,0,2428329176,4295,222
827477062,5,428,11177,5950,201507237,201508,196985,324,1702,8364,-1977,58,58,-168,27.53125,0.019423004239797592,-0.025309648364782333,0.9358502626419067,6.832265853881836,-4.308897495269775,6.171296119689941,0.6938300132751465,-2.6685352325439453,10.794048309326172,1579,1500,2011,1500,2000,1503,1000,1000,1940,1538,1519,1830,1775,1491,1480,70,970,8091,8127,1,89.19,-0.8099999999999999,,,1,1,1,1,1,1,1,0,1,1,0,0,stabilized_mix,-0.3199573755264282,-0.006027244031429291,0.18763497471809387,-0.05615304037928581,-0.01313828770071268,0.07420310378074646,0.0,0.12640000879764557,0.05615304037928581,0.13953830301761627,0.027679121121764183,0.0847843661904335,0.028076520189642906,0.06976915150880814,-0.0003973983402829617,0.015015211887657642,0.0,0.0,1.0,0.028076520189642906,0.06976915150880814,0.24372516572475433,-0.0003973983402829617,0.015015211887657642,-0.0,0.027679121121764183,0.0847843661904335,0.24372516572475433,0.667651891708374,-0.05139428377151489,13.06051254272461,0.051075421273708344,0.003929937724024057,-0.05012158304452896,-0.026824265718460083,0.020949605852365494,-0.03236816078424454,-0.02976040169596672,-0.05959150940179825,-0.14303824305534363,-0.053854718804359436,-6.891251541674137e-05,13.077667236328125,6.883396148681641,6.194270610809326,1830.0,1775.0,0.006358373444527388,-0.24024339020252228,0.02581697516143322,0.02151416428387165,0.11729413270950317,-0.03693678230047226,-0.06745065748691559,0.07144273817539215,0.11924553662538528,-0.07520444691181183,0.10770943760871887,0.06561411172151566,0.03204973787069321,-6.891253724461421e-05,1.0,0.1927262395620346,0.8359029293060303,0,0.30000001192092896,0,1,1,0,0,0.0,0.0,0,1434690535,4295,222
827477062,5,428,11178,5950,201511244,201512,196989,314,-150,4953,1874,290,416,-314,27.453125,-0.04457537457346916,0.0505121648311615,0.9681309461593628,8.227668762207031,-6.296189308166504,11.30275821685791,0.6852200031280518,-2.5196099281311035,10.827138900756836,1579,1500,2011,1500,2000,1503,1000,1000,1940,1546,1507,1837,1769,1491,1480,74,974,8091,8127,1,89.19,-0.8099999999999999,,,1,1,1,1,1,1,1,0,1,1,0,0,stabilized_mix,-0.2483893483877182,-0.025013841688632965,0.13995037972927094,-0.05688319355249405,-0.012625530362129211,0.07478131353855133,0.0,0.12640000879764557,0.05688319355249405,0.13902553915977478,0.028058378025889397,0.0845627635717392,0.028441596776247025,0.06951276957988739,-0.0003832188085652888,0.01504999678581953,0.0,0.0,1.0,0.028441596776247025,0.06951276957988739,0.24372516572475433,-0.0003832188085652888,0.01504999678581953,-0.0,0.028058378025889397,0.0845627635717392,0.24372516572475433,0.6342166662216187,-0.049880534410476685,13.062182426452637,0.048515550792217255,0.003814186668023467,-0.04003087431192398,-0.03174498677253723,0.030637644231319427,-0.038981057703495026,-0.010722276754677296,-0.07176987081766129,-0.14419332146644592,-0.09863517433404922,-8.498993702232838e-05,13.077666282653809,6.963783264160156,6.1138834953308105,1837.0,1769.0,0.0061315009370446205,-0.2407999485731125,0.03305017948150635,0.01073364820331335,0.11706379055976868,-0.043710168451070786,-0.053838033229112625,0.07236124575138092,0.14359991252422333,-0.10988923162221909,0.19727034866809845,0.0790024921298027,0.011538471095263958,-8.498996612615883e-05,1.0,0.2320515215396881,0.8359028697013855,0,0.30000001192092896,0,1,1,0,0,0.0,0.0,0,124422895,4295,222
827477062,5,428,11179,5950,201515277,201516,196993,308,-1658,10794,-233,77,262,-221,27.40625,0.06401807814836502,-0.012217506766319275,1.0130401849746704,6.8895649909973145,-4.30146598815918,7.616696357727051,0.5252577662467957,-2.1620213985443115,10.862348556518555,1580,1500,2011,1500,2000,1503,1000,1000,1940,1536,1512,1832,1773,1491,1480,78,978,8091,8127,1,89.19,-0.8099999999999999,,,1,1,1,1,1,1,1,0,1,1,0,0,stabilized_mix,-0.060713030397892,0.05514192581176758,0.18358345329761505,-0.05526823550462723,-0.011660615913569927,0.07545965909957886,0.0,0.12800000607967377,0.05526823550462723,0.13966062664985657,0.027264712378382683,0.08491526544094086,0.027634117752313614,0.06983031332492828,-0.00036940546124242246,0.015084953978657722,0.0,0.0,1.0,0.027634117752313614,0.06983031332492828,0.2413942813873291,-0.00036940546124242246,0.015084953978657722,-0.0,0.027264712378382683,0.08491526544094086,0.2413942813873291,0.5518960356712341,-0.012834794819355011,13.069199562072754,0.04220367968082428,0.0009811895433813334,-0.038688644766807556,-0.023586135357618332,0.020904066041111946,-0.03263181447982788,-0.01852879486978054,-0.0566985160112381,-0.14542236924171448,-0.06646821647882462,-7.416168227791786e-05,13.080853462219238,6.9112348556518555,6.169618129730225,1832.0,1773.0,0.005910487379878759,-0.24135926365852356,0.024215256795287132,0.015007717534899712,0.11710967868566513,-0.03248748183250427,-0.05209549888968468,0.07276522368192673,0.12024559080600739,-0.07507474720478058,0.13293643295764923,0.06244891509413719,0.019963614642620087,-7.416169682983309e-05,1.0,0.18338453769683838,0.8361065983772278,0,0.30000001192092896,0,1,1,0,0,0.0,0.0,0,1911678747,4295,222
827477062,5,428,11180,5950,201519311,201520,196997,344,2304,7708,-2675,160,121,-222,27.6875,0.10826104134321213,-0.023095522075891495,0.9313863515853882,8.0271577835083,-6.980043411254883,8.498405456542969,0.6171287298202515,-1.799481749534607,10.903409957885742,1580,1500,2011,1500,2000,1503,1000,1000,1940,1544,1492,1833,1772,1491,1480,82,982,8091,8127,1,89.19,-0.8099999999999999,,,1,1,1,1,1,1,1,0,1,1,0,0,stabilized_mix,0.08442375808954239,0.0024510901421308517,0.19565504789352417,-0.05493061989545822,-0.011164611205458641,0.07602774351835251,0.0,0.12800000607967377,0.05493061989545822,0.13916461169719696,0.027109667658805847,0.08470207452774048,0.02746530994772911,0.06958230584859848,-0.00035564269637688994,0.015119772404432297,0.0,0.0,1.0,0.02746530994772911,0.06958230584859848,0.2413942813873291,-0.00035564269637688994,0.015119772404432297,-0.0,0.027109667658805847,0.08470207452774048,0.2413942813873291,0.4690062403678894,-0.03411343693733215,13.072394371032715,0.03586222603917122,0.0026078945957124233,-0.02093043178319931,-0.029609398916363716,0.0339500829577446,-0.038022324442863464,0.012038144282996655,-0.06850296258926392,-0.1468556821346283,-0.07416258007287979,-7.735635153949261e-05,13.080850601196289,6.927206993103027,6.153643608093262,1833.0,1772.0,0.005690283142030239,-0.24191635847091675,0.03133226931095123,-0.002432065550237894,0.1166432648897171,-0.04078102856874466,-0.02816772274672985,0.07385043054819107,0.14010033011436462,-0.12182474136352539,0.14832516014575958,0.07543005049228668,-0.012960716150701046,-7.735638791928068e-05,1.0,0.22150437533855438,0.8361064195632935,0,0.30000001192092896,0,1,1,0,0,0.0,0.0,0,3727650064,4295,222
827477062,5,428,11181,5950,201523344,201524,197001,338,-436,6174,1709,305,521,-340,27.640625,0.017959527671337128,0.055230140686035156,1.000038504600525,8.87606143951416,-6.414005756378174,12.688149452209473,0.5831745862960815,-1.4216609001159668,10.940919876098633,1580,1500,2011,1500,2000,1503,1000,1000,1940,1548,1490,1839,1768,1491,1480,86,986,8091,8127,1,89.19,-0.8099999999999999,,,1,1,1,1,1,1,1,0,1,1,0,0,stabilized_mix,0.19856791198253632,-0.007269572466611862,0.13969998061656952,-0.05235840380191803,-0.010226256214082241,0.07666666805744171,0.0,0.12800000607967377,0.05235840380191803,0.13822625577449799,0.02583671733736992,0.08426748961210251,0.026179201900959015,0.06911312788724899,-0.00034248470910824835,0.015154360793530941,0.0,0.0,1.0,0.026179201900959015,0.06911312788724899,0.23987923562526703,-0.00034248470910824835,0.015154360793530941,-0.0,0.02583671733736992,0.08426748961210251,0.23987923562526703,0.3810975253582001,-0.026707850396633148,13.077330589294434,0.029133597388863564,0.002041432075202465,-0.014607559889554977,-0.03228187561035156,0.031208090484142303,-0.0420394241809845,0.0149814672768116,-0.07551374286413193,-0.1481650173664093,-0.11072499305009842,-9.061151649802923e-05,13.082908630371094,6.99451208114624,6.088397026062012,1839.0,1768.0,0.005479755345731974,-0.24246977269649506,0.03545001149177551,-0.004183654673397541,0.11656143516302109,-0.04446820169687271,-0.01965351402759552,0.07454915344715118,0.15491649508476257,-0.11194551736116409,0.22144998610019684,0.0831502228975296,-0.01612323336303234,-9.061149467015639e-05,1.0,0.24413664638996124,0.8362379670143127,0,0.30000001192092896,0,1,1,0,0,0.0,0.0,0,3783537170,4295,222
827477062,5,428,11182,5950,201527377,201528,197005,296,-601,9963,-12,71,258,-230,27.3125,0.03579557687044144,-0.027864985167980194,1.00095796585083,7.6635661125183105,-4.593380451202393,8.447845458984375,0.4436764717102051,-1.2371330261230469,10.981195449829102,1580,1500,2011,1500,2000,1503,1000,1000,1940,1539,1497,1834,1771,1491,1480,90,990,8091,8127,1,89.19,-0.8099999999999999,,,1,1,1,1,1,1,1,0,1,1,0,0,stabilized_mix,0.2272283285856247,0.06369522958993912,0.1954437494277954,-0.05120830237865448,-0.009656103327870369,0.0773642286658287,0.0,0.12800000607967377,0.05120830237865448,0.137656107544899,0.025274543091654778,0.08401687443256378,0.02560415118932724,0.0688280537724495,-0.0003296081558801234,0.01518881693482399,0.0,0.0,1.0,0.02560415118932724,0.0688280537724495,0.23987923562526703,-0.0003296081558801234,0.01518881693482399,-0.0,0.025274543091654778,0.08401687443256378,0.23987923562526703,0.33823511004447937,0.004892781376838684,13.078530311584473,0.025856096297502518,-0.00037398282438516617,-0.016508251428604126,-0.02495952509343624,0.022325394675135612,-0.03629419207572937,0.004888361319899559,-0.06182296574115753,-0.14957091212272644,-0.07372135668992996,-7.815228309482336e-05,13.082903861999512,6.93221378326416,6.15069055557251,1834.0,1771.0,0.005273730494081974,-0.24302107095718384,0.027453910559415817,0.0014145763125270605,0.1167806088924408,-0.03438211977481842,-0.022230811417102814,0.07501035928726196,0.13375446200370789,-0.08016961067914963,0.14744271337985992,0.06809698790311813,-0.005267359782010317,-7.815229037078097e-05,1.0,0.1999390572309494,0.8362376093864441,0,0.30000001192092896,0,1,1,0,0,0.0,0.0,0,1091861520,4295,222
827477062,5,428,11193,5960,201571735,201572,197049,316,-2275,9421,1180,247,400,-370,27.46875,0.02625342458486557,0.031859107315540314,1.0229564905166626,11.152740478515625,-6.992818832397461,8.158891677856445,0.23017922043800354,-0.6999130249023438,11.30810546875,1582,1500,2011,1500,2000,1503,1000,1000,1940,1555,1476,1835,1770,1491,1480,134,1034,8091,8127,1,89.19,-0.8099999999999999,,,1,1,1,1,1,1,1,0,1,1,0,0,stabilized_mix,0.19217514991760254,0.05017201602458954,0.18505756556987762,-0.03898424655199051,-0.001984682399779558,0.08460117876529694,0.0,0.13120000064373016,0.03898424655199051,0.13318468630313873,0.019284946843981743,0.08215418457984924,0.019492123275995255,0.06659234315156937,-0.00020717651932500303,0.015561843290925026,0.0,0.0,1.0,0.019492123275995255,0.06659234315156937,0.2495228350162506,-0.00020717651932500303,0.015561843290925026,0.0,0.019284946843981743,0.08215418457984924,0.2495228350162506,0.2075146734714508,0.05245696008205414,13.067928314208984,0.015878358855843544,-0.004013648256659508,0.005461207590997219,-0.03249040246009827,0.034089095890522,-0.05288274586200714,0.03824523091316223,-0.08625159412622452,-0.16098222136497498,-0.07119975984096527,-8.126371540129185e-05,13.069681167602539,6.941158771514893,6.128521919250488,1835.0,1770.0,0.0033148243092000484,-0.24898949265480042,0.042013656347990036,-0.018016932532191277,0.11596395820379257,-0.04471044987440109,0.007333087269216776,0.08115518093109131,0.1946520358324051,-0.12204771488904953,0.14239951968193054,0.0948495864868164,-0.04107685387134552,-8.1263693573419e-05,1.0,0.2787688970565796,0.8353924751281738,0,0.30000001192092896,0,1,1,0,0,0.0,0.0,0,3056765160,4296,223
827477062,5,428,11194,5960,201575769,201576,197053,334,1221,9155,-2401,136,79,-345,27.609375,0.07773406058549881,-0.03451193869113922,0.9611280560493469,11.211047172546387,-7.395414352416992,5.616946697235107,0.18066443502902985,-0.6734208464622498,11.336912155151367,1582,1500,2011,1500,2000,1503,1000,1000,1940,1554,1473,1831,1772,1491,1480,138,1038,8091,8127,1,89.19,-0.8099999999999999,,,1,1,1,1,1,1,1,0,1,1,0,0,stabilized_mix,0.1728682816028595,0.06418166309595108,0.22359919548034668,-0.03813698887825012,-0.0013869211543351412,0.08532557636499405,0.0,0.13120000064373016,0.03813698887825012,0.13258692622184753,0.01887090690433979,0.08188849687576294,0.01906849443912506,0.06629346311092377,-0.00019758817506954074,0.015595030039548874,0.0,0.0,1.0,0.01906849443912506,0.06629346311092377,0.2495228350162506,-0.00019758817506954074,0.015595030039548874,0.0,0.01887090690433979,0.08188849687576294,0.2495228350162506,0.20089897513389587,0.06348095089197159,13.067978858947754,0.015372167341411114,-0.004857135936617851,0.007908382453024387,-0.031411826610565186,0.03604971617460251,-0.05316077917814255,0.043058089911937714,-0.08522813767194748,-0.16198775172233582,-0.049017105251550674,-7.385166827589273e-05,13.069676399230957,6.904096603393555,6.165579795837402,1831.0,1772.0,0.003161410801112652,-0.24952048063278198,0.041496701538562775,-0.020822424441576004,0.11586076766252518,-0.043226324021816254,0.01061960868537426,0.08169431984424591,0.19566968083381653,-0.1290743350982666,0.09803421050310135,0.09372720122337341,-0.04624640569090843,-7.385169737972319e-05,1.0,0.2754702568054199,0.83539217710495,0,0.30000001192092896,0,1,1,0,0,0.0,0.0,0,1288848627,4296,223
827477062,5,428,11195,5960,201579798,201580,197057,324,271,5411,1050,367,174,-398,27.53125,-0.03436892107129097,0.011872071772813797,0.9539003968238831,12.008127212524414,-8.738492965698242,6.975720405578613,0.17758774757385254,-0.7036339640617371,11.36541748046875,1582,1500,2011,1500,2000,1503,1000,1000,1940,1559,1466,1833,1771,1491,1480,142,1042,8091,8127,1,89.19,-0.8099999999999999,,,1,1,1,1,1,1,1,0,1,1,0,0,stabilized_mix,0.12281337380409241,0.05198073014616966,0.16563406586647034,-0.03725333884358406,-0.0007091765874065459,0.08593179285526276,0.0,0.13120000064373016,0.03725333884358406,0.13190917670726776,0.018438443541526794,0.08158263564109802,0.01862666942179203,0.06595458835363388,-0.00018822509446181357,0.015628047287464142,0.0,0.0,1.0,0.01862666942179203,0.06595458835363388,0.2495228350162506,-0.00018822509446181357,0.015628047287464142,0.0,0.018438443541526794,0.08158263564109802,0.2495228350162506,0.2071799337863922,0.0638660341501236,13.06787395477295,0.01585281454026699,-0.00488660205155611,0.012059715576469898,-0.03410348296165466,0.04262425750494003,-0.05694539099931717,0.053493939340114594,-0.09199444204568863,-0.1629827916622162,-0.06087464466691017,-7.835007272660732e-05,13.069672584533691,6.926586627960205,6.143085956573486,1833.0,1771.0,0.003011601511389017,-0.25004875659942627,0.045547597110271454,-0.026745030656456947,0.11549709737300873,-0.046928830444812775,0.016187505796551704,0.08240629732608795,0.20958136022090912,-0.1525154709815979,0.12174928933382034,0.10114839673042297,-0.05741224065423012,-7.835010183043778e-05,1.0,0.2972816824913025,0.8353919386863708,0,0.30000001192092896,0,1,1,0,0,0.0,0.0,0,3940910991,4296,223
827477062,5,428,11196,5960,201583827,201584,197061,314,-1697,9035,750,167,304,-355,27.453125,0.023231863975524902,0.012218030169606209,1.0273233652114868,11.199189186096191,-5.620131492614746,5.9107208251953125,0.061216190457344055,-0.5731050968170166,11.385334014892578,1582,1500,2011,1500,2000,1503,1000,1000,1940,1553,1481,1832,1772,1491,1480,146,1046,8091,8127,1,89.19,-0.8099999999999999,,,1,1,1,1,1,1,1,0,1,1,0,0,stabilized_mix,0.16071198880672455,0.09561441838741302,0.15013286471366882,-0.03544716164469719,0.0003063117328565568,0.08657755702733994,0.0,0.13120000064373016,0.03544716164469719,0.13089369237422943,0.017544271424412727,0.08110766857862473,0.017723580822348595,0.06544684618711472,-0.00017930874309968203,0.01566082239151001,0.0,0.0,1.0,0.017723580822348595,0.06544684618711472,0.2451627552509308,-0.00017930874309968203,0.01566082239151001,-0.0,0.017544271424412727,0.08110766857862473,0.2451627552509308,0.17617884278297424,0.0899893119931221,13.074127197265625,0.013474564999341965,-0.006882274057716131,0.0039823539555072784,-0.029019776731729507,0.027373146265745163,-0.053079284727573395,0.03040754795074463,-0.0826299637556076,-0.16367799043655396,-0.0515807680785656,-7.53405038267374e-05,13.075624465942383,6.914515018463135,6.161109924316406,1832.0,1772.0,0.0028689398895949125,-0.25057315826416016,0.039944715797901154,-0.013761388137936592,0.1161871924996376,-0.03995313495397568,0.005352715030312538,0.08231977373361588,0.19546271860599518,-0.098089799284935,0.1031615361571312,0.0909183993935585,-0.03268779441714287,-7.534056203439832e-05,1.0,0.2670934498310089,0.8357723355293274,0,0.30000001192092896,0,1,1,0,0,0.0,0.0,0,1280211683,4296,223
827477062,5,428,11197,5960,201587861,201588,197065,318,1355,9175,-2316,131,54,-345,27.484375,0.04689251258969307,-0.031985316425561905,0.9634711742401123,11.323513984680176,-7.093833923339844,4.273795127868652,-0.014208942651748657,-0.6342090964317322,11.406696319580078,1582,1500,2011,1500,2000,1503,1000,1000,1940,1552,1473,1830,1774,1491,1480,150,1050,8091,8127,1,89.19,-0.8099999999999999,,,1,1,1,1,1,1,1,0,1,1,0,0,stabilized_mix,0.1080690398812294,0.11519428342580795,0.18824198842048645,-0.034790102392435074,0.0011225973721593618,0.08715717494487762,0.0,0.13120000064373016,0.034790102392435074,0.13007740676403046,0.017224479466676712,0.08073209971189499,0.017395051196217537,0.06503870338201523,-0.00017057251534424722,0.01569339446723461,0.0,0.0,1.0,0.017395051196217537,0.06503870338201523,0.2451627552509308,-0.00017057251534424722,0.01569339446723461,-0.0,0.017224479466676712,0.08073209971189499,0.2451627552509308,0.18963047862052917,0.10676644742488861,13.073807716369629,0.014503592625260353,-0.008165397681295872,0.00822476577013731,-0.027552906423807144,0.03455168753862381,-0.05366890877485275,0.0420873686671257,-0.08170957863330841,-0.16442367434501648,-0.03729589655995369,-7.060181815177202e-05,13.0756196975708,6.890819072723389,6.18480110168457,1830.0,1774.0,0.0027291602455079556,-0.2510943114757538,0.039569687098264694,-0.020488567650318146,0.11592907458543777,-0.03793325275182724,0.01105254516005516,0.08282968401908875,0.1976325958967209,-0.12381076067686081,0.07459179311990738,0.08990652114152908,-0.045238595455884933,-7.060184725560248e-05,1.0,0.2641209065914154,0.8357720375061035,0,0.30000001192092896,0,1,1,0,0,0.0,0.0,0,1430306704,4296,223
827477062,5,428,11198,5960,201591892,201592,197069,336,176,7221,711,376,168,-422,27.625,-0.022264432162046432,0.00453300541266799,0.970768392086029,12.069198608398438,-8.340357780456543,6.130523681640625,-0.06799980998039246,-0.6292691230773926,11.429716110229492,1582,1500,2011,1500,2000,1503,1000,1000,1940,1555,1467,1833,1772,1491,1480,154,1054,8091,8127,1,89.19,-0.8099999999999999,,,1,1,1,1,1,1,1,0,1,1,0,0,stabilized_mix,0.0889912024140358,0.12099894881248474,0.15614630281925201,-0.032990820705890656,0.00198626727797091,0.08770659565925598,0.0,0.13120000064373016,0.032990820705890656,0.12921373546123505,0.016333265230059624,0.08033261448144913,0.016495410352945328,0.06460686773061752,-0.0001621459232410416,0.015725744888186455,0.0,0.0,1.0,0.016495410352945328,0.06460686773061752,0.2396688312292099,-0.0001621459232410416,0.015725744888186455,-0.0,0.016333265230059624,0.08033261448144913,0.2396688312292099,0.18732506036758423,0.11873750388622284,13.081243515014648,0.014319147914648056,-0.009075747802853584,0.012831498868763447,-0.02897423505783081,0.04062049835920334,-0.05717548727989197,0.05240337550640106,-0.0869394913315773,-0.1652272343635559,-0.05349891260266304,-7.65541335567832e-05,13.083123207092285,6.924332141876221,6.1587910652160645,1833.0,1772.0,0.0025943347718566656,-0.2516119182109833,0.04275387153029442,-0.026425017043948174,0.11560613662004471,-0.039913978427648544,0.017247462645173073,0.08338907361030579,0.21064725518226624,-0.14556670188903809,0.10699782520532608,0.0957036018371582,-0.05632639303803444,-7.655414810869843e-05,1.0,0.28098994493484497,0.8362516760826111,0,0.30000001192092896,0,1,1,0,0,0.0,0.0,0,2138686541,4296,223
