magic,version,size,sequence,dropped_records,timestamp_us,tick_ms,imu_sequence,raw_temperature,raw_accel_x,raw_accel_y,raw_accel_z,raw_gyro_x,raw_gyro_y,raw_gyro_z,temperature_c,accel_x_g,accel_y_g,accel_z_g,gyro_x_dps,gyro_y_dps,gyro_z_dps,roll_deg,pitch_deg,yaw_deg,rc_ch1_us,rc_ch2_us,rc_ch3_us,rc_ch4_us,rc_ch5_us,rc_ch6_us,rc_ch7_us,rc_ch8_us,throttle_us,servo_alpha_us,servo_beta_us,motor_upper_us,motor_lower_us,rc_armed,rc_link_ok,throttle_over_20,imu_valid,motor_output_reason,rc_link_seen,arm_switch_high,arm_throttle_low,arm_switch_seen_low,arm_switch_prev_high,imu_fault_latched,imu_fault_reason,motor_output_reason_name,acc_nav_m_s2_0,acc_nav_m_s2_1,acc_nav_m_s2_2,vel_est_m_s_0,vel_est_m_s_1,vel_est_m_s_2,vel_ref_m_s_0,vel_ref_m_s_1,vel_err_m_s_0,vel_err_m_s_1,vel_pid_out_m_s2_0,vel_pid_out_m_s2_1,vel_pid_p_m_s2_0,vel_pid_p_m_s2_1,vel_pid_i_m_s2_0,vel_pid_i_m_s2_1,vel_pid_d_m_s2_0,vel_pid_d_m_s2_1,vel_loop_active,ctrl_pos_p_m_s2_0,ctrl_pos_p_m_s2_1,ctrl_pos_p_m_s2_2,ctrl_vel_d_m_s2_0,ctrl_vel_d_m_s2_1,ctrl_vel_d_m_s2_2,ctrl_accel_out_m_s2_0,ctrl_accel_out_m_s2_1,ctrl_accel_out_m_s2_2,ctrl_force_cmd_n_0,ctrl_force_cmd_n_1,ctrl_force_cmd_n_2,ctrl_tilt_ff_rad_0,ctrl_tilt_ff_rad_1,ctrl_tilt_angle_p_rad_0,ctrl_tilt_angle_p_rad_1,ctrl_tilt_rate_d_rad_0,ctrl_tilt_rate_d_rad_1,ctrl_tilt_out_rad_0,ctrl_tilt_out_rad_1,ctrl_yaw_angle_p_rad_s,ctrl_yaw_rate_d_rad_s,ctrl_yaw_torque_cmd,ctrl_total_force_n,ctrl_motor_thrust_cmd_n_0,ctrl_motor_thrust_cmd_n_1,ctrl_motor_cmd_us_0,ctrl_motor_cmd_us_1,z_ref_m,record_crc32,sector_seq,sector_index
827477062,2,320,27421,8712,409307674,409308,403127,526,8714,7997,1457,34,-46,404,29.109375,-0.03921569511294365,0.1112329363822937,0.9505839943885803,-8.583019256591797,2.643460988998413,-6.588689804077148,2.5410561561584473,0.758728563785553,2.9037156105041504,1500,1500,1330,1500,2000,1000,1000,1000,1377,1496,1502,1622,1580,1,1,1,1,1,1,1,0,1,1,0,0,stabilized_mix,-0.011165238916873932,-0.3831661343574524,-0.19118806719779968,0.0026764501817524433,0.004388491157442331,-0.544818639755249,0.0,0.0,-0.0026764501817524433,-0.004388491157442331,0.0,0.0,0.0,0.0,0.0,0.0,0.0,0.0,0.0,0.0,0.0,0.17715886235237122,-0.0,-0.0,-0.0,0.0,0.0,3.111358880996704,0.20866110920906067,0.7024806141853333,8.03113079071045,0.02597569301724434,-0.0872473493218422,0.0,0.0,-0.028581006452441216,0.09279929101467133,-0.0026053134351968765,0.005551941692829132,-0.1591559499502182,0.017249150201678276,-4.96673455927521e-05,8.031282424926758,4.263978004455566,3.7673044204711914,1622.0,1580.0,0.0,1078936533,20283,940
827477062,2,320,27422,8712,409311710,409312,403131,514,-9965,8730,-768,-183,-237,-42,29.015625,0.06530168652534485,-0.10540446639060974,1.049648404121399,-2.918046474456787,0.8818285465240479,-2.261545419692993,2.310335397720337,0.7663429379463196,2.898630142211914,1500,1500,1332,1500,2000,1000,1000,1000,1379,1531,1489,1626,1580,1,1,1,1,1,1,1,0,1,1,0,0,stabilized_mix,0.02841472253203392,0.3059436082839966,-0.2348749339580536,0.002612752839922905,0.0047153327614068985,-0.5450781583786011,0.0,0.0,-0.002612752839922905,-0.0047153327614068985,0.0,0.0,0.0,0.0,0.0,0.0,0.0,0.0,0.0,0.0,0.0,0.17715886235237122,-0.0,-0.0,-0.0,0.0,0.0,3.076838731765747,0.21381132304668427,0.645318865776062,8.072975158691406,0.026478633284568787,-0.07975462079048157,0.0,0.0,-0.009484879672527313,0.03138628229498863,0.016993753612041473,-0.048368338495492935,-0.15888966619968414,0.005920712370425463,-5.35390863660723e-05,8.08359432220459,4.309492588043213,3.774101495742798,1626.0,1580.0,0.0,2259981310,20283,940
827477062,2,320,27423,8712,409315744,409316,403135,534,4625,6952,2105,-56,-242,420,29.171875,-0.033430662006139755,0.26046690344810486,0.9449430704116821,-7.893254280090332,3.547658681869507,-9.004534721374512,2.5846571922302246,0.7851242423057556,2.864326000213623,1500,1500,1332,1500,2000,1000,1000,1000,1379,1502,1507,1623,1582,1,1,1,1,1,1,1,0,1,1,0,0,stabilized_mix,0.03044498711824417,-0.3927665650844574,-0.23074693977832794,0.002715188777074218,0.004032432567328215,-0.5455701947212219,0.0,0.0,-0.002715188777074218,-0.004032432567328215,0.0,0.0,0.0,0.0,0.0,0.0,0.0,0.0,0.0,0.0,0.0,0.17603591084480286,-0.0,-0.0,-0.0,0.0,0.0,3.0757157802581787,0.214389830827713,0.7155442833900452,8.073559761047363,0.026548320427536964,-0.08839120715856552,0.0,0.0,-0.038155581802129745,0.08489308506250381,-0.011607261374592781,-0.0034981220960617065,-0.15709352493286133,0.023573817685246468,-4.673193325288594e-05,8.074152946472168,4.270736217498779,3.8034169673919678,1623.0,1582.0,0.0,4135336666,20283,940
827477062,2,320,27424,8712,409319775,409320,403139,524,-4040,9600,677,-106,-26,-30,29.09375,0.03737076371908188,-0.2671380639076233,1.0589255094528198,-4.10630989074707,-0.11245501041412354,-0.5626370310783386,2.3710052967071533,0.7857035994529724,2.854322910308838,1500,1500,1334,1500,2000,1000,1000,1000,1381,1524,1482,1628,1581,1,1,1,1,1,1,1,0,1,1,0,0,stabilized_mix,0.040875665843486786,0.2952311635017395,-0.2530876398086548,0.002763853408396244,0.003967067692428827,-0.5459248423576355,0.0,0.0,-0.002763853408396244,-0.003967067692428827,0.0,0.0,0.0,0.0,0.0,0.0,0.0,0.0,0.0,0.0,0.0,0.17603591084480286,-0.0,-0.0,-0.0,0.0,0.0,3.041195869445801,0.22116002440452576,0.6616635322570801,8.115394592285156,0.02724516950547695,-0.0813191831111908,0.0,0.0,0.0012032350059598684,0.043936289846897125,0.028448404744267464,-0.03738289326429367,-0.15656974911689758,0.00147298036608845,-5.4283911595121026e-05,8.124356269836426,4.333597660064697,3.7907586097717285,1628.0,1581.0,0.0,715630780,20283,940
827477062,2,320,27425,8712,409323807,409324,403143,546,110,6630,2509,-71,-326,403,29.265625,-0.019284382462501526,0.3572339415550232,0.9578307867050171,-6.808714866638184,3.6935999393463135,-9.044055938720703,2.606257200241089,0.8088585734367371,2.8270010948181152,1500,1500,1334,1500,2000,1000,1000,1000,1381,1510,1508,1624,1585,1,1,1,1,1,1,1,0,1,1,0,0,stabilized_mix,0.054101746529340744,-0.33222782611846924,-0.26804640889167786,0.0029905522242188454,0.003847531508654356,-0.546515703201294,0.0,0.0,-0.0029905522242188454,-0.003847531508654356,0.0,0.0,0.0,0.0,0.0,0.0,0.0,0.0,0.0,0.0,0.0,0.17603591084480286,-0.0,-0.0,-0.0,0.0,0.0,3.041195869445801,0.2214697003364563,0.7249774932861328,8.114607810974121,0.027285942807793617,-0.08909905701875687,0.0,0.0,-0.039524249732494354,0.0728582814335823,-0.012238306924700737,-0.01624077558517456,-0.15513917803764343,0.02367728389799595,-4.6011642552912235e-05,8.116286277770996,4.288201332092285,3.828084945678711,1624.0,1585.0,0.0,27442,20283,940
827477062,2,320,27426,8712,409327840,409328,403147,528,3024,10241,-1066,-12,94,22,29.125,0.06847856938838959,-0.37751370668411255,1.0543110370635986,-5.62093448638916,-0.6981917023658752,-0.18035364151000977,2.4397623538970947,0.8048800826072693,2.8123936653137207,1500,1500,1342,1500,2000,1000,1000,1000,1387,1515,1478,1636,1588,1,1,1,1,1,1,1,0,1,1,0,0,stabilized_mix,0.04896758496761322,0.24899309873580933,-0.25357821583747864,0.0029442263767123222,0.003377930261194706,-0.5469246506690979,0.0,0.0,-0.0029442263767123222,-0.003377930261194706,0.0,0.0,0.0,0.0,0.0,0.0,0.0,0.0,0.0,0.0,0.0,0.17530599236488342,-0.0,-0.0,-0.0,0.0,0.0,2.90238618850708,0.22975240647792816,0.6858295798301697,8.281455039978027,0.027735885232686996,-0.08257602155208588,0.0,0.0,0.007320644799619913,0.05893634259700775,0.03505653142929077,-0.023639678955078125,-0.15437433123588562,0.0004721647419501096,-5.386577686294913e-05,8.288862228393555,4.413760185241699,3.8751022815704346,1636.0,1588.0,0.0,1693895042,20283,940
827477062,2,320,27427,8712,409331873,409332,403151,526,-3362,6312,2610,-99,-415,344,29.109375,-0.0036644786596298218,0.39989760518074036,0.9591677188873291,-5.694068908691406,4.341400146484375,-8.636712074279785,2.6115076541900635,0.8278569579124451,2.7919602394104004,1500,1500,1342,1500,2000,1000,1000,1000,1387,1518,1511,1632,1592,1,1,1,1,1,1,1,0,1,1,0,0,stabilized_mix,0.06272532045841217,-0.22917990386486053,-0.28400883078575134,0.0031656245701014996,0.0036892443895339966,-0.5475621223449707,0.0,0.0,-0.0031656245701014996,-0.0036892443895339966,0.0,0.0,0.0,0.0,0.0,0.0,0.0,0.0,0.0,0.0,0.0,0.17530599236488342,-0.0,-0.0,-0.0,0.0,0.0,2.90238618850708,0.22826066613197327,0.7352925539016724,8.280829429626465,0.0275579746812582,-0.08854807913303375,0.0,0.0,-0.04552367329597473,0.059707678854465485,-0.01796569861471653,-0.028840400278568268,-0.15330445766448975,0.02261085994541645,-4.574278136715293e-05,8.285611152648926,4.371519565582275,3.9140915870666504,1632.0,1592.0,0.0,2039509089,20283,940
827477062,2,320,27428,8712,409335905,409336,403155,536,8938,10402,-1550,32,66,91,29.1875,0.05571304261684418,-0.4256540536880493,1.0405430793762207,-7.072909355163574,-0.889251708984375,-2.3717856407165527,2.507089376449585,0.8117297291755676,2.768584728240967,1500,1500,1342,1500,2000,1000,1000,1000,1387,1507,1476,1634,1590,1,1,1,1,1,1,1,0,1,1,0,0,stabilized_mix,0.02154204063117504,0.19274842739105225,-0.24189966917037964,0.003058797912672162,0.0030777810607105494,-0.5479784607887268,0.0,0.0,-0.003058797912672162,-0.0030777810607105494,0.0,0.0,0.0,0.0,0.0,0.0,0.0,0.0,0.0,0.0,0.0,0.1748315393924713,-0.0,-0.0,-0.0,0.0,0.0,2.901911735534668,0.23164501786231995,0.7037216424942017,8.281697273254395,0.0279634278267622,-0.08471084386110306,0.0,0.0,0.009323664009571075,0.07415834814310074,0.037287093698978424,-0.01055249571800232,-0.1520805060863495,0.006209320388734341,-5.105495802126825e-05,8.287919044494629,4.399234294891357,3.8886847496032715,1634.0,1590.0,0.0,3349506357,20283,940
827477062,2,320,27434,8717,409359166,409360,403178,528,12586,8619,164,96,-199,438,29.125,-0.047660764306783676,-0.022878974676132202,0.9556229114532471,-9.938092231750488,1.2728877067565918,-6.167213439941406,2.7230305671691895,0.850944459438324,2.671116828918457,1500,1500,1352,1500,2000,1000,1000,1000,1396,1493,1490,1641,1600,1,1,1,1,1,1,1,0,1,1,0,0,stabilized_mix,-0.021674294024705887,-0.16907581686973572,-0.25288307666778564,0.0030052228830754757,0.0045440406538546085,-0.5513262748718262,0.0,0.0,-0.0030052228830754757,-0.0045440406538546085,0.0,0.0,0.0,0.0,0.0,0.0,0.0,0.0,0.0,0.0,0.0,0.17304518818855286,-0.0,-0.0,-0.0,0.0,0.0,2.727525234222412,0.24209438264369965,0.7694392204284668,8.490184783935547,0.028506893664598465,-0.09036923199892044,0.0,0.0,-0.013018298894166946,0.10164058208465576,0.015488594770431519,0.011271350085735321,-0.14697711169719696,0.016145728528499603,-4.5790948206558824e-05,8.491743087768555,4.474826335906982,4.016916751861572,1641.0,1600.0,0.0,1446328271,20283,940
827477062,2,320,27435,8717,409363197,409364,403182,544,-14897,7998,-2057,-298,5,-28,29.25,0.0980292409658432,0.0832337737083435,1.067138671875,-2.4309239387512207,4.1168532371521,0.009966239333152771,2.513953685760498,0.8695350289344788,2.663351535797119,1500,1500,1354,1500,2000,1000,1000,1000,1397,1538,1508,1646,1600,1,1,1,1,1,1,1,0,1,1,0,0,stabilized_mix,0.04102279990911484,0.41011685132980347,-0.3548436462879181,0.0029185337480157614,0.0057213036343455315,-0.5519662499427795,0.0,0.0,-0.0029185337480157614,-0.0057213036343455315,0.0,0.0,0.0,0.0,0.0,0.0,0.0,0.0,0.0,0.0,0.0,0.17304518818855286,-0.0,-0.0,-0.0,0.0,0.0,2.693005084991455,0.24478718638420105,0.7218955755233765,8.532008171081543,0.028682585805654526,-0.08440189808607101,0.0,0.0,-0.0418982096016407,0.024740098044276237,-0.013215623795986176,-0.05966179817914963,-0.14657051861286163,-2.6091553081641905e-05,-5.130883073434234e-05,8.547962188720703,4.530525207519531,4.017436981201172,1646.0,1600.0,0.0,4226877643,20283,940
827477062,2,320,27436,8717,409367230,409368,403186,532,11852,8523,1096,125,-318,448,29.15625,-0.04062804952263832,0.026864975690841675,0.9534751772880554,-9.754101753234863,1.0242483615875244,-7.7380571365356445,2.738459825515747,0.8738414645195007,2.6434836387634277,1500,1500,1354,1500,2000,1000,1000,1000,1397,1495,1488,1642,1603,1,1,1,1,1,1,1,0,1,1,0,0,stabilized_mix,-0.0019709505140781403,-0.1733020395040512,-0.28093287348747253,0.0029539091046899557,0.0056041087955236435,-0.5527499318122864,0.0,0.0,-0.0029539091046899557,-0.0056041087955236435,0.0,0.0,0.0,0.0,0.0,0.0,0.0,0.0,0.0,0.0,0.0,0.17231202125549316,-0.0,-0.0,-0.0,0.0,0.0,2.6922719478607178,0.24927303194999695,0.7763051986694336,8.532444953918457,0.029206417500972748,-0.09071701765060425,0.0,0.0,-0.010423487983644009,0.09926475584506989,0.018782928586006165,0.008547738194465637,-0.14553023874759674,0.020258186385035515,-4.384524072520435e-05,8.534261703491211,4.48635721206665,4.047904968261719,1642.0,1603.0,0.0,734902441,20283,940
827477062,2,320,27437,8717,409371242,409372,403190,536,-13982,8235,-2288,-311,148,-61,29.1875,0.10520369559526443,0.03677499294281006,1.0739293098449707,-2.3578245639801025,4.328075408935547,1.899304747581482,2.527698516845703,0.884097158908844,2.6358628273010254,1500,1500,1360,1500,2000,1000,1000,1000,1402,1539,1509,1656,1605,1,1,1,1,1,1,1,0,1,1,0,0,stabilized_mix,0.04252232611179352,0.42682114243507385,-0.38443639874458313,0.0028654756024479866,0.006710481829941273,-0.553500235080719,0.0,0.0,-0.0028654756024479866,-0.006710481829941273,0.0,0.0,0.0,0.0,0.0,0.0,0.0,0.0,0.0,0.0,0.0,0.17231202125549316,-0.0,-0.0,-0.0,0.0,0.0,2.588711977005005,0.25098100304603577,0.731315016746521,8.656956672668457,0.0289837084710598,-0.08426832407712936,0.0,0.0,-0.04341210797429085,0.023649804294109344,-0.014428399503231049,-0.06061851978302002,-0.1451312154531479,-0.004972368013113737,-5.253622657619417e-05,8.673789024353027,4.599575996398926,4.07421350479126,1656.0,1605.0,0.0,1413808979,20283,940
827477062,2,320,27438,8717,409375241,409376,403194,532,11241,8065,1342,90,-417,473,29.15625,-0.04068605601787567,0.0566784143447876,0.9467582106590271,-9.750154495239258,1.4210267066955566,-7.3384857177734375,2.764055013656616,0.9047339558601379,2.625047206878662,1500,1500,1360,1500,2000,1000,1000,1000,1402,1496,1490,1649,1608,1,1,1,1,1,1,1,0,1,1,0,0,stabilized_mix,0.03775402158498764,-0.1891462504863739,-0.30970150232315063,0.00288136163726449,0.006733034271746874,-0.5544073581695557,0.0,0.0,-0.00288136163726449,-0.006733034271746874,0.0,0.0,0.0,0.0,0.0,0.0,0.0,0.0,0.0,0.0,0.0,0.17183548212051392,-0.0,-0.0,-0.0,0.0,0.0,2.588235378265381,0.25964534282684326,0.7907029390335083,8.657094955444336,0.029983215034008026,-0.09107190370559692,0.0,0.0,-0.014253166504204273,0.09779589623212814,0.015730049461126328,0.0067239925265312195,-0.1445649117231369,0.019212111830711365,-4.387350054457784e-05,8.65836238861084,4.548548698425293,4.109813690185547,1649.0,1608.0,0.0,974353017,20284,941
827477062,2,320,27439,8717,409379260,409380,403198,530,-14533,8052,-2722,-319,180,-62,29.140625,0.09262606501579285,0.04078960418701172,1.0846145153045654,-2.4453556537628174,4.136482238769531,0.6340739727020264,2.560629367828369,0.9016045928001404,2.6095361709594727,1500,1500,1362,1500,2000,1000,1000,1000,1404,1539,1507,1658,1608,1,1,1,1,1,1,1,0,1,1,0,0,stabilized_mix,0.03614772483706474,0.40409019589424133,-0.4179607629776001,0.002847549505531788,0.007735619321465492,-0.5552626848220825,0.0,0.0,-0.002847549505531788,-0.007735619321465492,0.0,0.0,0.0,0.0,0.0,0.0,0.0,0.0,0.0,0.0,0.0,0.17183548212051392,-0.0,-0.0,-0.0,0.0,0.0,2.553715467453003,0.2572157382965088,0.7430034875869751,8.69868278503418,0.029560891911387444,-0.08520298451185226,0.0,0.0,-0.041291337460279465,0.02441011555492878,-0.011730445548892021,-0.060792870819568634,-0.14375275373458862,-0.0016600018134340644,-5.089445039629936e-05,8.715381622314453,4.612163066864014,4.1032185554504395,1658.0,1608.0,0.0,3248251690,20284,941
827477062,2,320,27440,8717,409383298,409384,403202,540,10710,8442,2541,90,-358,475,29.21875,-0.04378578066825867,0.06595152616500854,0.9529517889022827,-9.731218338012695,1.4233145713806152,-5.693317890167236,2.7940380573272705,0.9321265816688538,2.6022090911865234,1500,1500,1362,1500,2000,1000,1000,1000,1404,1497,1489,1653,1610,1,1,1,1,1,1,1,0,1,1,0,0,stabilized_mix,0.06239589303731918,-0.20905064046382904,-0.33539801836013794,0.003173510544002056,0.007569735869765282,-0.5562798380851746,0.0,0.0,-0.003173510544002056,-0.007569735869765282,0.0,0.0,0.0,0.0,0.0,0.0,0.0,0.0,0.0,0.0,0.0,0.17183548212051392,-0.0,-0.0,-0.0,0.0,0.0,2.553715467453003,0.26852214336395264,0.8013678193092346,8.698359489440918,0.03086063452064991,-0.09185661375522614,0.0,0.0,-0.014208388514816761,0.09714291989803314,0.016652245074510574,0.005286306142807007,-0.14336910843849182,0.014905071817338467,-4.496239125728607e-05,8.699687004089355,4.574655532836914,4.125031471252441,1653.0,1610.0,0.0,2466180241,20284,941
827477062,2,320,27441,8717,409387323,409388,403206,544,-14427,7871,-3450,-292,180,-60,29.25,0.10034410655498505,0.053963929414749146,1.0773953199386597,-2.4921364784240723,3.9698355197906494,0.9325008392333984,2.6051793098449707,0.9249956011772156,2.589803695678711,1500,1500,1362,1500,2000,1000,1000,1000,1404,1539,1506,1658,1608,1,1,1,1,1,1,1,0,1,1,0,0,stabilized_mix,0.042590074241161346,0.36263802647590637,-0.4389604330062866,0.003077753586694598,0.008197025395929813,-0.557244062423706,0.0,0.0,-0.003077753586694598,-0.008197025395929813,0.0,0.0,0.0,0.0,0.0,0.0,0.0,0.0,0.0,0.0,0.0,0.1725757122039795,-0.0,-0.0,-0.0,0.0,0.0,2.5544557571411133,0.2666652202606201,0.7573347091674805,8.69737434387207,0.030650826171040535,-0.08685367554426193,0.0,0.0,-0.03963379189372063,0.02488083578646183,-0.008982965722680092,-0.06197284162044525,-0.142719566822052,-0.002441281685605645,-5.080632399767637e-05,8.714454650878906,4.6112589836120605,4.103195667266846,1658.0,1608.0,0.0,1511123524,20284,941
827477062,2,320,27442,8717,409391356,409392,403210,532,12096,8594,4460,109,-447,467,29.15625,-0.04653479903936386,0.023563802242279053,0.9529489278793335,-9.916502952575684,1.1838741302490234,-6.13398551940918,2.828411340713501,0.9636052250862122,2.5829806327819824,1500,1500,1362,1500,2000,1000,1000,1000,1404,1497,1487,1652,1610,1,1,1,1,1,1,1,0,1,1,0,0,stabilized_mix,0.09375250339508057,-0.2158156782388687,-0.35262036323547363,0.003485581837594509,0.007866745814681053,-0.5583338141441345,0.0,0.0,-0.003485581837594509,-0.007866745814681053,0.0,0.0,0.0,0.0,0.0,0.0,0.0,0.0,0.0,0.0,0.0,0.1725757122039795,-0.0,-0.0,-0.0,0.0,0.0,2.5544557571411133,0.27876508235931396,0.8169897794723511,8.696928977966309,0.032042305916547775,-0.09364611655473709,0.0,0.0,-0.011820093728601933,0.09900882840156555,0.020222213119268417,0.005362711846828461,-0.1423622965812683,0.01605873741209507,-4.420621553435922e-05,8.698832511901855,4.5704474449157715,4.128385066986084,1652.0,1610.0,0.0,3320706549,20284,941
827477062,2,320,27443,8717,409395389,409396,403214,530,-14704,7747,-2260,-287,239,-41,29.140625,0.06464659422636032,0.08759355545043945,1.0847141742706299,-2.597301483154297,3.829894542694092,1.0398168563842773,2.6437103748321533,0.936467707157135,2.567220687866211,1500,1500,1364,1500,2000,1000,1000,1000,1406,1540,1504,1661,1610,1,1,1,1,1,1,1,0,1,1,0,0,stabilized_mix,0.018084485083818436,0.32421496510505676,-0.47251513600349426,0.0033609438687562943,0.008455213159322739,-0.5594119429588318,0.0,0.0,-0.0033609438687562943,-0.008455213159322739,0.0,0.0,0.0,0.0,0.0,0.0,0.0,0.0,0.0,0.0,0.0,0.17375686764717102,-0.0,-0.0,-0.0,0.0,0.0,2.5211169719696045,0.2733001708984375,0.7720292806625366,8.736964225769043,0.03127071261405945,-0.08813262730836868,0.0,0.0,-0.038063399493694305,0.025813275948166847,-0.006792686879634857,-0.062319353222846985,-0.1415371149778366,-0.0027222344651818275,-5.049075116403401e-05,8.754158973693848,4.629533290863037,4.1246256828308105,1661.0,1610.0,0.0,988077431,20284,941
827477062,2,320,27444,8717,409399425,409400,403218,532,13120,9439,4227,106,-387,459,29.15625,-0.023713529109954834,-0.030767351388931274,0.9761327505111694,-10.048056602478027,1.020904779434204,-4.5708394050598145,2.8497469425201416,0.9876279234886169,2.565105438232422,1500,1500,1364,1500,2000,1000,1000,1000,1406,1497,1486,1656,1611,1,1,1,1,1,1,1,0,1,1,0,0,stabilized_mix,0.1058509349822998,-0.1904747635126114,-0.3756072223186493,0.003736969083547592,0.008052259683609009,-0.5605645179748535,0.0,0.0,-0.003736969083547592,-0.008052259683609009,0.0,0.0,0.0,0.0,0.0,0.0,0.0,0.0,0.0,0.0,0.0,0.17375686764717102,-0.0,-0.0,-0.0,0.0,0.0,2.5211169719696045,0.2877117395401001,0.8315361738204956,8.736373901367188,0.032920729368925095,-0.09487058967351913,0.0,0.0,-0.010146944783627987,0.09986933320760727,0.022773783653974533,0.004998743534088135,-0.14142636954784393,0.011966430582106113,-4.531099693849683e-05,8.738749504089355,4.5959296226501465,4.142819881439209,1656.0,1611.0,0.0,1634178764,20284,941
827477062,2,320,27445,8717,409403458,409404,403222,544,-15221,7468,-1742,-256,149,-27,29.25,0.04473353922367096,0.13400016725063324,1.0752507448196411,-2.5831141471862793,3.8113012313842773,0.0988914966583252,2.679724931716919,0.9524838328361511,2.5505690574645996,1500,1500,1364,1500,2000,1000,1000,1000,1406,1541,1504,1660,1610,1,1,1,1,1,1,1,0,1,1,0,0,stabilized_mix,-0.0032564960420131683,0.29919302463531494,-0.49304118752479553,0.003692970145493746,0.008967707864940166,-0.5617539286613464,0.0,0.0,-0.003692970145493746,-0.008967707864940166,0.0,0.0,0.0,0.0,0.0,0.0,0.0,0.0,0.0,0.0,0.0,0.17375686764717102,-0.0,-0.0,-0.0,0.0,0.0,2.5211169719696045,0.2778174579143524,0.782626748085022,8.73672103881836,0.031788114458322525,-0.08933889865875244,0.0,0.0,-0.03787966072559357,0.02567298896610737,-0.006091546267271042,-0.06366591155529022,-0.1406652331352234,-0.0002588973438832909,-4.932339652441442e-05,8.754619598388672,4.623927116394043,4.130692958831787,1660.0,1610.0,0.0,331022709,20284,941
827477062,2,320,27452,8723,409431691,409432,403250,544,11132,11828,2503,-59,-164,220,29.25,-0.0458659827709198,-0.3384804129600525,1.0634983777999878,-8.708372116088867,1.2459995746612549,-3.460787534713745,2.7968592643737793,1.0330336093902588,2.5090866088867188,1500,1500,1364,1500,2000,1000,1000,1000,1406,1504,1486,1656,1611,1,1,1,1,1,1,1,0,1,1,0,0,stabilized_mix,0.007482931017875671,0.19884002208709717,-0.41174831986427307,0.0035158272366970778,0.010152664966881275,-0.5706109404563904,0.0,0.0,-0.0035158272366970778,-0.010152664966881275,0.0,0.0,0.0,0.0,0.0,0.0,0.0,0.0,0.0,0.0,0.0,0.17309227585792542,-0.0,-0.0,-0.0,0.0,0.0,2.5204524993896484,0.3007872998714447,0.8149187564849854,8.737682342529297,0.03441056236624718,-0.09297341853380203,0.0,0.0,-0.012382346205413342,0.08654101938009262,0.02202821522951126,-0.006432399153709412,-0.13849322497844696,0.009060320444405079,-4.530150908976793e-05,8.739983558654785,4.596499443054199,4.143484115600586,1656.0,1611.0,0.0,1648110284,20284,941
827477062,2,320,27453,8723,409435723,409436,403254,530,-9848,4664,-2181,-195,-15,247,29.140625,0.07168735563755035,0.39871394634246826,0.9673112034797668,-4.18612813949585,4.973021507263184,-0.11035960912704468,2.8353967666625977,1.0420424938201904,2.5051746368408203,1500,1500,1364,1500,2000,1000,1000,1000,1406,1534,1509,1659,1610,1,1,1,1,1,1,1,0,1,1,0,0,stabilized_mix,0.005427265539765358,0.04310010373592377,-0.47425898909568787,0.0034344021696597338,0.01091027446091175,-0.571966826915741,0.0,0.0,-0.0034344021696597338,-0.01091027446091175,0.0,0.0,0.0,0.0,0.0,0.0,0.0,0.0,0.0,0.0,0.0,0.17304262518882751,-0.0,-0.0,-0.0,0.0,0.0,2.520402669906616,0.30324825644493103,0.8274474143981934,8.736793518066406,0.034695401787757874,-0.09441652148962021,0.0,0.0,-0.04942533001303673,0.04160463809967041,-0.014729928225278854,-0.0528118833899498,-0.13828839361667633,0.00028892079717479646,-4.829978570342064e-05,8.749940872192383,4.616469383239746,4.133471488952637,1659.0,1610.0,0.0,1593073658,20284,941
827477062,2,320,27454,8723,409439755,409440,403258,560,8117,11680,1436,-119,-56,121,29.375,-0.037021975964307785,-0.35784396529197693,1.0766596794128418,-7.48274040222168,1.8267135620117188,-2.0401272773742676,2.775552272796631,1.0547196865081787,2.4987592697143555,1500,1500,1364,1500,2000,1000,1000,1000,1406,1511,1489,1657,1611,1,1,1,1,1,1,1,0,1,1,0,0,stabilized_mix,0.010328095406293869,0.2868626117706299,-0.3962220847606659,0.0035655912943184376,0.010998421348631382,-0.5729626417160034,0.0,0.0,-0.0035655912943184376,-0.010998421348631382,0.0,0.0,0.0,0.0,0.0,0.0,0.0,0.0,0.0,0.0,0.0,0.17304262518882751,-0.0,-0.0,-0.0,0.0,0.0,2.520402669906616,0.3073158264160156,0.8092732429504395,8.737732887268066,0.035156626254320145,-0.09234146773815155,0.0,0.0,-0.018153192475438118,0.07436065375804901,0.017003433778882027,-0.01798081398010254,-0.13795247673988342,0.005341040901839733,-4.641400300897658e-05,8.740408897399902,4.602274417877197,4.138134479522705,1657.0,1611.0,0.0,2484144493,20284,941
827477062,2,320,27455,8723,409443788,409444,403262,530,-4711,5250,-2460,-141,-96,346,29.140625,0.08656656742095947,0.37627729773521423,0.942192792892456,-5.328359603881836,4.638862609863281,-0.4368823170661926,2.8794307708740234,1.080075979232788,2.4993033409118652,1500,1500,1364,1500,2000,1000,1000,1000,1406,1527,1506,1658,1610,1,1,1,1,1,1,1,0,1,1,0,0,stabilized_mix,0.04406888410449028,-0.042754873633384705,-0.41129621863365173,0.0035465939436107874,0.011886629275977612,-0.574157178401947,0.0,0.0,-0.0035465939436107874,-0.011886629275977612,0.0,0.0,0.0,0.0,0.0,0.0,0.0,0.0,0.0,0.0,0.0,0.17304262518882751,-0.0,-0.0,-0.0,0.0,0.0,2.520402669906616,0.3143714368343353,0.8400408029556274,8.736719131469727,0.03596726432442665,-0.09585103392601013,0.0,0.0,-0.04610461741685867,0.05295737460255623,-0.010137353092432022,-0.0428936593234539,-0.13798096776008606,0.001143755274824798,-4.7893059672787786e-05,8.745211601257324,4.6120710372924805,4.133140563964844,1658.0,1610.0,0.0,3769424505,20284,941
827477062,2,320,27456,8723,409447819,409448,403266,538,3010,11644,-15,-186,-2,42,29.203125,-0.03124876320362091,-0.32564905285835266,1.0908551216125488,-6.142509937286377,2.53884220123291,-2.518637180328369,2.7541871070861816,1.0717790126800537,2.486994743347168,1500,1500,1364,1500,2000,1000,1000,1000,1406,1519,1493,1657,1611,1,1,1,1,1,1,1,0,1,1,0,0,stabilized_mix,-0.0055682603269815445,0.3655098080635071,-0.36496618390083313,0.003550204448401928,0.0118263503536582,-0.5749574303627014,0.0,0.0,-0.003550204448401928,-0.0118263503536582,0.0,0.0,0.0,0.0,0.0,0.0,0.0,0.0,0.0,0.0,0.0,0.17196035385131836,-0.0,-0.0,-0.0,0.0,0.0,2.519320487976074,0.3109250068664551,0.8010691404342651,8.73912525177002,0.035563502460718155,-0.09140437841415405,0.0,0.0,-0.025226036086678505,0.06103222444653511,0.01033746637403965,-0.030372153967618942,-0.13733649253845215,0.0065937768667936325,-4.575998173095286e-05,8.743624687194824,4.600612163543701,4.143012523651123,1657.0,1611.0,0.0,4286641934,20285,942
827477062,2,320,27457,8723,409451853,409452,403270,532,578,5244,-1547,-69,-110,414,29.15625,0.08075609803199768,0.3106266260147095,0.9008533954620361,-6.626043319702148,4.037843227386475,-0.2665513753890991,2.9158997535705566,1.1111836433410645,2.489156723022461,1500,1500,1372,1500,2000,1000,1000,1000,1412,1520,1502,1670,1618,1,1,1,1,1,1,1,0,1,1,0,0,stabilized_mix,0.06084578111767769,-0.10002225637435913,-0.32471737265586853,0.0035791995469480753,0.012467852793633938,-0.5759292840957642,0.0,0.0,-0.0035791995469480753,-0.012467852793633938,0.0,0.0,0.0,0.0,0.0,0.0,0.0,0.0,0.0,0.0,0.0,0.17196035385131836,-0.0,-0.0,-0.0,0.0,0.0,2.3812406063079834,0.32529184222221375,0.8562003374099731,8.9036283493042,0.036518506705760956,-0.09586790204048157,0.0,0.0,-0.03937891125679016,0.0646202340722084,-0.0028604045510292053,-0.031247667968273163,-0.1374496966600418,0.0006978298770263791,-4.786317003890872e-05,8.908013343811035,4.693322658538818,4.214690685272217,1670.0,1618.0,0.0,2601666056,20285,942
827477062,2,320,27458,8723,409455887,409456,403274,540,-2773,9443,-711,-254,46,-27,29.21875,-0.02962825819849968,-0.24741582572460175,1.0786014795303345,-4.713652610778809,3.6537399291992188,-1.3459951877593994,2.740431785583496,1.0917785167694092,2.4796791076660156,1500,1500,1372,1500,2000,1000,1000,1000,1412,1528,1500,1670,1619,1,1,1,1,1,1,1,0,1,1,0,0,stabilized_mix,-0.019667385146021843,0.4192546010017395,-0.33090269565582275,0.003391318954527378,0.012650604359805584,-0.5765258073806763,0.0,0.0,-0.003391318954527378,-0.012650604359805584,0.0,0.0,0.0,0.0,0.0,0.0,0.0,0.0,0.0,0.0,0.0,0.16985687613487244,-0.0,-0.0,-0.0,0.0,0.0,2.3791370391845703,0.3167728781700134,0.802423357963562,8.907172203063965,0.03554881364107132,-0.08984480053186417,0.0,0.0,-0.03561878576874733,0.04595142975449562,-6.997212767601013e-05,-0.043893370777368546,-0.1369534432888031,0.0035238072741776705,-4.670038470067084e-05,8.915759086608887,4.691381454467773,4.224377632141113,1670.0,1619.0,0.0,1369534685,20285,942
827477062,2,320,27459,8723,409459920,409460,403278,550,5604,6228,142,-15,-189,463,29.296875,0.05646919086575508,0.20880243182182312,0.9041382670402527,-7.969855785369873,3.1221964359283447,-1.4467555284500122,2.940366268157959,1.134674310684204,2.4810614585876465,1500,1500,1372,1500,2000,1000,1000,1000,1412,1512,1496,1669,1618,1,1,1,1,1,1,1,0,1,1,0,0,stabilized_mix,0.05743873864412308,-0.13201503455638885,-0.24765914678573608,0.003428202122449875,0.013004220090806484,-0.5772046446800232,0.0,0.0,-0.003428202122449875,-0.013004220090806484,0.0,0.0,0.0,0.0,0.0,0.0,0.0,0.0,0.0,0.0,0.0,0.16985687613487244,-0.0,-0.0,-0.0,0.0,0.0,2.3791370391845703,0.3301375210285187,0.8568602800369263,8.90661907196045,0.03704957664012909,-0.09590763598680496,0.0,0.0,-0.030438877642154694,0.07769961655139923,0.006610698997974396,-0.01820801943540573,-0.1370258331298828,0.0037875971756875515,-4.6633329475298524e-05,8.90829086303711,4.687312126159668,4.220978736877441,1669.0,1618.0,0.0,972462944,20285,942
827477062,2,320,27460,8723,409463953,409464,403282,538,-8796,8471,-2655,-269,102,-57,29.203125,0.010923564434051514,-0.11256025731563568,1.0731877088546753,-3.4914445877075195,4.009361743927002,-0.8582477569580078,2.7430336475372314,1.106809139251709,2.4701156616210938,1500,1500,1372,1500,2000,1000,1000,1000,1412,1536,1502,1671,1619,1,1,1,1,1,1,1,0,1,1,0,0,stabilized_mix,-0.03347878158092499,0.4168095290660858,-0.2891010046005249,0.0033830469474196434,0.013808651827275753,-0.5775845646858215,0.0,0.0,-0.0033830469474196434,-0.013808651827275753,0.0,0.0,0.0,0.0,0.0,0.0,0.0,0.0,0.0,0.0,0.0,0.16985687613487244,-0.0,-0.0,-0.0,0.0,0.0,2.3791370391845703,0.32085561752319336,0.8048568367958069,8.906835556030273,0.03600795194506645,-0.09011875838041306,0.0,0.0,-0.039087068289518356,0.03403791785240173,-0.0030791163444519043,-0.05608084052801132,-0.13645270466804504,0.0022468874230980873,-4.697198164649308e-05,8.920903205871582,4.695311546325684,4.225591659545898,1671.0,1619.0,0.0,2154343503,20285,942
827477062,2,320,27461,8723,409467986,409468,403286,552,9821,7596,300,25,-207,453,29.3125,0.05036122351884842,0.06733720004558563,0.9060018062591553,-8.816703796386719,2.433593273162842,-1.7144017219543457,2.9420766830444336,1.1575331687927246,2.4720911979675293,1500,1500,1372,1500,2000,1000,1000,1000,1412,1506,1491,1669,1618,1,1,1,1,1,1,1,0,1,1,0,0,stabilized_mix,0.06429862976074219,-0.10675852000713348,-0.16422174870967865,0.003047458129003644,0.013790871016681194,-0.5779632329940796,0.0,0.0,-0.003047458129003644,-0.013790871016681194,0.0,0.0,0.0,0.0,0.0,0.0,0.0,0.0,0.0,0.0,0.0,0.16848963499069214,-0.0,-0.0,-0.0,0.0,0.0,2.377769947052002,0.33703964948654175,0.8537513613700867,8.908662796020508,0.03781476616859436,-0.09553263336420059,0.0,0.0,-0.023720113560557365,0.08593597263097763,0.014094652608036995,-0.009596660733222961,-0.13655614852905273,0.004488293547183275,-4.6223722165450454e-05,8.909957885742188,4.686097621917725,4.223860263824463,1669.0,1618.0,0.0,1823586843,20285,942
827477062,2,320,27462,8723,409472019,409472,403290,540,-12985,6963,-3880,-266,112,-38,29.21875,0.034654807299375534,0.04927174746990204,1.0351139307022095,-2.778353691101074,4.851065635681152,-0.0765458345413208,2.75988507270813,1.1264934539794922,2.463771343231201,1500,1500,1372,1500,2000,1000,1000,1000,1412,1540,1507,1671,1619,1,1,1,1,1,1,1,0,1,1,0,0,stabilized_mix,-0.03883732110261917,0.37174659967422485,-0.23608329892158508,0.002946949563920498,0.014819864183664322,-0.5781611800193787,0.0,0.0,-0.002946949563920498,-0.014819864183664322,0.0,0.0,0.0,0.0,0.0,0.0,0.0,0.0,0.0,0.0,0.0,0.16848963499069214,-0.0,-0.0,-0.0,0.0,0.0,2.377769947052002,0.32439830899238586,0.8100204467773438,8.908218383789062,0.036399535834789276,-0.09067485481500626,0.0,0.0,-0.04728545621037483,0.02708182856440544,-0.010885920375585556,-0.06359302997589111,-0.1361205279827118,0.00020039653463754803,-4.7572102630510926e-05,8.926790237426758,4.7012553215026855,4.225534439086914,1671.0,1619.0,0.0,3065980751,20285,942
827477062,2,320,27463,8723,409476053,409476,403294,538,12863,9336,1627,39,-232,416,29.203125,0.029140938073396683,-0.07982318103313446,0.9294936656951904,-9.434082984924316,1.6558860540390015,-3.4840219020843506,2.9285926818847656,1.178098440170288,2.459120273590088,1500,1500,1372,1500,2000,1000,1000,1000,1412,1502,1486,1668,1619,1,1,1,1,1,1,1,0,1,1,0,0,stabilized_mix,0.06421351432800293,-0.04734509438276291,-0.08938758075237274,0.0028084025252610445,0.01444501057267189,-0.5782130360603333,0.0,0.0,-0.0028084025252610445,-0.01444501057267189,0.0,0.0,0.0,0.0,0.0,0.0,0.0,0.0,0.0,0.0,0.0,0.16760092973709106,-0.0,-0.0,-0.0,0.0,0.0,2.3768811225891113,0.34368568658828735,0.8486833572387695,8.910051345825195,0.038553692400455475,-0.09493989497423172,0.0,0.0,-0.016137324273586273,0.09193921089172363,0.0224163681268692,-0.003000684082508087,-0.13587698340415955,0.00912114791572094,-4.436454037204385e-05,8.912330627441406,4.677988052368164,4.234342575073242,1668.0,1619.0,0.0,3821865317,20285,942
827477062,2,320,27469,8728,409499245,409500,403317,544,13915,10915,2304,-3,-218,340,29.25,0.0036523230373859406,-0.2263229489326477,0.9583912491798401,-9.454777717590332,1.7157135009765625,-4.187571048736572,2.9011034965515137,1.2441236972808838,2.413898468017578,1500,1500,1372,1500,2000,1000,1000,1000,1412,1502,1485,1667,1620,1,1,1,1,1,1,1,0,1,1,0,0,stabilized_mix,0.06333636492490768,0.04096835106611252,0.09203482419252396,0.0024318501818925142,0.01640942133963108,-0.5760306119918823,0.0,0.0,-0.0024318501818925142,-0.01640942133963108,0.0,0.0,0.0,0.0,0.0,0.0,0.0,0.0,0.0,0.0,0.0,0.16722527146339417,-0.0,-0.0,-0.0,0.0,0.0,2.3765056133270264,0.3635871112346649,0.8451847434043884,8.910640716552734,0.04078107699751854,-0.094541035592556,0.0,0.0,-0.016719263046979904,0.09213478863239288,0.024061813950538635,-0.0024062469601631165,-0.13350917398929596,0.010963035747408867,-4.289110074751079e-05,8.913247108459473,4.671079158782959,4.242167949676514,1667.0,1620.0,0.0,279940041,20285,942
827477062,2,320,27470,8728,409503281,409504,403321,544,-13733,4913,-2707,-207,31,119,29.25,0.06774292141199112,0.3231342136859894,0.95419842004776,-2.9751570224761963,5.5040740966796875,-0.18193382024765015,2.8299763202667236,1.2335031032562256,2.4055027961730957,1500,1500,1372,1500,2000,1000,1000,1000,1412,1541,1509,1671,1619,1,1,1,1,1,1,1,0,1,1,0,0,stabilized_mix,0.005801500752568245,0.15539753437042236,0.007783431559801102,0.0023732881527394056,0.0174606554210186,-0.575332522392273,0.0,0.0,-0.0023732881527394056,-0.0174606554210186,0.0,0.0,0.0,0.0,0.0,0.0,0.0,0.0,0.0,0.0,0.0,0.16722527146339417,-0.0,-0.0,-0.0,0.0,0.0,2.3765056133270264,0.3574061095714569,0.8318043947219849,8.909019470214844,0.04009583219885826,-0.09308816492557526,0.0,0.0,-0.053645793348550797,0.028997547924518585,-0.013549961149692535,-0.06409061700105667,-0.13306958973407745,0.00047630161861889064,-4.64076001662761e-05,8.928167343139648,4.696121692657471,4.232045650482178,1671.0,1619.0,0.0,2185363625,20285,942
827477062,2,320,27471,8728,409507315,409508,403325,536,11995,11435,2258,-56,-178,230,29.1875,-0.022477488964796066,-0.3203939199447632,0.994239091873169,-8.743135452270508,1.7168121337890625,-4.925480842590332,2.8737053871154785,1.254312515258789,2.3918819427490234,1500,1500,1374,1500,2000,1000,1000,1000,1414,1506,1484,1669,1622,1,1,1,1,1,1,1,0,1,1,0,0,stabilized_mix,0.026025623083114624,0.1555323600769043,0.1333702802658081,0.0024171259719878435,0.016769343987107277,-0.5743215680122375,0.0,0.0,-0.0024171259719878435,-0.016769343987107277,0.0,0.0,0.0,0.0,0.0,0.0,0.0,0.0,0.0,0.0,0.0,0.16782906651496887,-0.0,-0.0,-0.0,0.0,0.0,2.3425891399383545,0.3681398630142212,0.8444234132766724,8.950993537902832,0.04110521078109741,-0.0940321832895279,0.0,0.0,-0.016654547303915024,0.08481589704751968,0.02445066347718239,-0.00921628624200821,-0.1323564052581787,0.012894879095256329,-4.181155236437917e-05,8.95405101776123,4.6860833168029785,4.267967700958252,1669.0,1622.0,0.0,1438433180,20285,942
827477062,2,320,27472,8728,409511348,409512,403329,534,-9557,3777,-2145,-184,-6,240,29.171875,0.081531822681427,0.3767661154270172,0.8991475105285645,-4.121397495269775,5.581583499908447,0.41979318857192993,2.8902924060821533,1.25982666015625,2.387650966644287,1500,1500,1374,1500,2000,1000,1000,1000,1414,1535,1508,1673,1621,1,1,1,1,1,1,1,0,1,1,0,0,stabilized_mix,0.014547370374202728,0.028278470039367676,0.08290073275566101,0.002303154906257987,0.017699062824249268,-0.5734481811523438,0.0,0.0,-0.002303154906257987,-0.017699062824249268,0.0,0.0,0.0,0.0,0.0,0.0,0.0,0.0,0.0,0.0,0.0,0.16782906651496887,-0.0,-0.0,-0.0,0.0,0.0,2.3425891399383545,0.36903420090675354,0.8522630929946899,8.94944953918457,0.0412120595574379,-0.0949365571141243,0.0,0.0,-0.05415548011660576,0.03998798131942749,-0.012943420559167862,-0.05494857579469681,-0.13213486969470978,-0.0010990160517394543,-4.663178697228432e-05,8.963727951049805,4.715023040771484,4.24870491027832,1673.0,1621.0,0.0,3647965746,20285,942
827477062,2,320,27473,8728,409515380,409516,403333,528,7455,10779,1739,-155,-147,112,29.125,-0.044117383658885956,-0.3493998050689697,1.0139789581298828,-7.366274833679199,2.600978374481201,-4.572917938232422,2.8409788608551025,1.2616605758666992,2.3739023208618164,1500,1500,1375,1500,2000,1000,1000,1000,1415,1514,1490,1671,1623,1,1,1,1,1,1,1,0,1,1,0,0,stabilized_mix,-0.014132427051663399,0.27417030930519104,0.16803990304470062,0.002287468872964382,0.016983715817332268,-0.5721814632415771,0.0,0.0,-0.002287468872964382,-0.016983715817332268,0.0,0.0,0.0,0.0,0.0,0.0,0.0,0.0,0.0,0.0,0.0,0.16857153177261353,-0.0,-0.0,-0.0,0.0,0.0,2.3260715007781982,0.3715248703956604,0.840027928352356,8.970386505126953,0.04139316454529762,-0.0933600589632988,0.0,0.0,-0.02517716772854328,0.07130467891693115,0.01621599681675434,-0.022055380046367645,-0.1314149796962738,0.011971871368587017,-4.1805062210187316e-05,8.973748207092285,4.695899486541748,4.277848720550537,1671.0,1623.0,0.0,1764154472,20286,943
827477062,2,320,27474,8728,409519411,409520,403337,544,-3415,3918,-1403,-128,-108,358,29.25,0.08281978219747543,0.3478187322616577,0.8611043095588684,-5.686451435089111,4.921231746673584,-1.0364255905151367,2.9430649280548096,1.2839655876159668,2.3686532974243164,1500,1500,1382,1500,2000,1000,1000,1000,1421,1527,1503,1684,1629,1,1,1,1,1,1,1,0,1,1,0,0,stabilized_mix,0.019574806094169617,-0.06281369924545288,0.173847034573555,0.0021429096814244986,0.017710547894239426,-0.571065366268158,0.0,0.0,-0.0021429096814244986,-0.017710547894239426,0.0,0.0,0.0,0.0,0.0,0.0,0.0,0.0,0.0,0.0,0.0,0.16857153177261353,-0.0,-0.0,-0.0,0.0,0.0,2.205251455307007,0.38204991817474365,0.8779095411300659,9.113880157470703,0.04189503937959671,-0.09602917730808258,0.0,0.0,-0.046886928379535675,0.05417754501104355,-0.004991888999938965,-0.04185163229703903,-0.13114014267921448,0.0027133559342473745,-4.4949323637411e-05,9.121981620788574,4.78573751449585,4.336244106292725,1684.0,1629.0,0.0,1559289223,20286,943
827477062,2,320,27475,8728,409523448,409524,403341,532,868,9748,675,-239,-38,8,29.15625,-0.04161980003118515,-0.3006625771522522,1.0218861103057861,-5.6323041915893555,3.6190297603607178,-3.489683151245117,2.80102276802063,1.2669305801391602,2.352752208709717,1500,1500,1382,1500,2000,1000,1000,1000,1421,1524,1496,1682,1630,1,1,1,1,1,1,1,0,1,1,0,0,stabilized_mix,-0.04904099553823471,0.38507264852523804,0.20532944798469543,0.0020941859111189842,0.018053259700536728,-0.5695526599884033,0.0,0.0,-0.0020941859111189842,-0.018053259700536728,0.0,0.0,0.0,0.0,0.0,0.0,0.0,0.0,0.0,0.0,0.0,0.16857153177261353,-0.0,-0.0,-0.0,0.0,0.0,2.205251455307007,0.37634164094924927,0.8356613516807556,9.11500072479248,0.04126472771167755,-0.09142212569713593,0.0,0.0,-0.034475989639759064,0.05365506187081337,0.0067887380719184875,-0.037767063826322556,-0.13030757009983063,0.00913596898317337,-4.241004353389144e-05,9.121715545654297,4.7729082107543945,4.3488078117370605,1682.0,1630.0,0.0,1538371292,20286,943
827477062,2,320,27476,8728,409527483,409528,403345,552,2981,4862,-193,-66,-178,431,29.3125,0.07192531228065491,0.25346189737319946,0.8369963765144348,-7.192152500152588,4.385743141174316,-1.402843952178955,2.965583086013794,1.308380126953125,2.351154327392578,1500,1500,1382,1500,2000,1000,1000,1000,1421,1518,1499,1683,1629,1,1,1,1,1,1,1,0,1,1,0,0,stabilized_mix,0.03206055983901024,-0.09990827739238739,0.26569655537605286,0.0019116327166557312,0.017850875854492188,-0.5681713223457336,0.0,0.0,-0.0019116327166557312,-0.017850875854492188,0.0,0.0,0.0,0.0,0.0,0.0,0.0,0.0,0.0,0.0,0.0,0.16835415363311768,-0.0,-0.0,-0.0,0.0,0.0,2.2050342559814453,0.3892021179199219,0.8840214014053345,9.11442756652832,0.04267583414912224,-0.09668895602226257,0.0,0.0,-0.04178256168961525,0.06851896643638611,0.0008932724595069885,-0.028169989585876465,-0.13022390007972717,0.0036726368125528097,-4.429294494912028e-05,9.118048667907715,4.780488967895508,4.337559700012207,1683.0,1629.0,0.0,921181304,20286,943
827477062,2,320,27477,8728,409531511,409532,403349,544,-6012,8471,-1183,-264,0,-41,29.25,-0.022311508655548096,-0.16878396272659302,1.019958734512329,-4.1340651512146,4.38507604598999,-2.811188220977783,2.776165008544922,1.2776825428009033,2.335659980773926,1500,1500,1382,1500,2000,1000,1000,1000,1421,1533,1500,1683,1630,1,1,1,1,1,1,1,0,1,1,0,0,stabilized_mix,-0.06727325171232224,0.42027750611305237,0.23340047895908356,0.0017937906086444855,0.018531572073698044,-0.5664725303649902,0.0,0.0,-0.0017937906086444855,-0.018531572073698044,0.0,0.0,0.0,0.0,0.0,0.0,0.0,0.0,0.0,0.0,0.0,0.16835415363311768,-0.0,-0.0,-0.0,0.0,0.0,2.2050342559814453,0.3794410824775696,0.8284517526626587,9.114907264709473,0.04160460829734802,-0.09064071625471115,0.0,0.0,-0.04177401214838028,0.039382778108119965,-0.00016940385103225708,-0.051257938146591187,-0.12941262125968933,0.007359673734754324,-4.27184859290719e-05,9.126893997192383,4.777039527893066,4.349854469299316,1683.0,1630.0,0.0,1735600341,20286,943
827477062,2,320,27478,8728,409535543,409536,403353,528,9107,7039,1413,-4,-247,463,29.125,0.05053648725152016,0.10868984460830688,0.854258120059967,-8.768304824829102,3.0778636932373047,-3.2377302646636963,2.9836442470550537,1.3251402378082275,2.330038070678711,1500,1500,1384,1500,2000,1000,1000,1000,1423,1509,1491,1685,1632,1,1,1,1,1,1,1,0,1,1,0,0,stabilized_mix,0.02938413992524147,-0.1184840053319931,0.3341524004936218,0.00163452816195786,0.0179539043456316,-0.5648400187492371,0.0,0.0,-0.00163452816195786,-0.0179539043456316,0.0,0.0,0.0,0.0,0.0,0.0,0.0,0.0,0.0,0.0,0.0,0.16716286540031433,-0.0,-0.0,-0.0,0.0,0.0,2.169322967529297,0.39346569776535034,0.8874930143356323,9.157763481140137,0.042938850820064545,-0.09660077095031738,0.0,0.0,-0.029183760285377502,0.08313952386379242,0.013755090534687042,-0.013461247086524963,-0.12911826372146606,0.008476357907056808,-4.2224652133882046e-05,9.159460067749023,4.790853023529053,4.3686065673828125,1685.0,1632.0,0.0,1979609403,20286,943
827477062,2,320,27479,8728,409539577,409540,403357,516,-11659,7399,-2769,-282,100,-38,29.03125,0.008336659520864487,0.009026706218719482,1.0071489810943604,-3.1488776206970215,5.2206621170043945,-0.796755313873291,2.7984519004821777,1.2885565757751465,2.3178868293762207,1500,1500,1384,1500,2000,1000,1000,1000,1423,1539,1505,1687,1631,1,1,1,1,1,1,1,0,1,1,0,0,stabilized_mix,-0.07795670628547668,0.35610803961753845,0.24873027205467224,0.0014172743540257215,0.0187857523560524,-0.5630517601966858,0.0,0.0,-0.0014172743540257215,-0.0187857523560524,0.0,0.0,0.0,0.0,0.0,0.0,0.0,0.0,0.0,0.0,0.0,0.16716286540031433,-0.0,-0.0,-0.0,0.0,0.0,2.169322967529297,0.3819250464439392,0.8360079526901245,9.157238006591797,0.04168329015374184,-0.09103962033987045,0.0,0.0,-0.04950423538684845,0.029858814552426338,-0.007820945233106613,-0.061180807650089264,-0.12848202884197235,0.0020859006326645613,-4.423863720148802e-05,9.174683570861816,4.808535099029541,4.366148471832275,1687.0,1631.0,0.0,1276578188,20286,943
827477062,2,320,27480,8728,409543611,409544,403361,536,12886,9108,1221,6,-267,446,29.1875,0.041968438774347305,-0.05649751424789429,0.8863162994384766,-9.858015060424805,2.537836790084839,-3.8313257694244385,2.993832588195801,1.343548059463501,2.3131561279296875,1500,1500,1385,1500,2000,1000,1000,1000,1423,1502,1488,1686,1633,1,1,1,1,1,1,1,0,1,1,0,0,stabilized_mix,0.035309478640556335,-0.10237553715705872,0.3748299479484558,0.0013715578243136406,0.018547404557466507,-0.5612309575080872,0.0,0.0,-0.0013715578243136406,-0.018547404557466507,0.0,0.0,0.0,0.0,0.0,0.0,0.0,0.0,0.0,0.0,0.0,0.16716286540031433,-0.0,-0.0,-0.0,0.0,0.0,2.1520628929138184,0.3995703458786011,0.8908487558364868,9.178815841674805,0.04350433126091957,-0.09673357009887695,0.0,0.0,-0.02400813065469265,0.09325757622718811,0.01949620060622692,-0.0034759938716888428,-0.12823432683944702,0.01003038790076971,-4.137138603255153e-05,9.180615425109863,4.7971649169921875,4.383450984954834,1686.0,1633.0,0.0,1523883088,20286,943
827477062,2,320,27488,8735,409575875,409576,403393,530,-1988,9432,1050,-239,26,24,29.140625,-0.06941129267215729,-0.24417811632156372,1.0320327281951904,-6.339937210083008,3.76053524017334,-2.414834976196289,2.9321160316467285,1.338627815246582,2.237360954284668,1500,1500,1387,1500,2000,1000,1000,1000,1425,1522,1495,1688,1635,1,1,1,1,1,1,1,0,1,1,0,0,stabilized_mix,-0.10629668086767197,0.31136995553970337,0.31153953075408936,0.00013185963325668126,0.018010089173913002,-0.5460925698280334,0.0,0.0,-0.00013185963325668126,-0.018010089173913002,0.0,0.0,0.0,0.0,0.0,0.0,0.0,0.0,0.0,0.0,0.0,0.16569536924362183,-0.0,-0.0,-0.0,0.0,0.0,2.116075277328491,0.3991914391517639,0.8775596618652344,9.220830917358398,0.04326533526182175,-0.09488272666931152,0.0,0.0,-0.035412851721048355,0.059703003615140915,0.007852483540773392,-0.03517972305417061,-0.12426570057868958,0.006322023458778858,-4.1280261939391494e-05,9.226824760437012,4.8198137283325195,4.407011032104492,1688.0,1635.0,0.0,176845528,20286,943
827477062,2,320,27489,8735,409579908,409580,403397,538,5596,5999,-512,-9,-188,511,29.203125,0.08471311628818512,0.20523574948310852,0.8440789580345154,-9.458548545837402,3.060983180999756,-1.67374587059021,3.1317172050476074,1.3749213218688965,2.2364087104797363,1500,1500,1387,1500,2000,1000,1000,1000,1425,1508,1490,1688,1635,1,1,1,1,1,1,1,0,1,1,0,0,stabilized_mix,-0.019557878375053406,-0.18535004556179047,0.36583763360977173,-0.00022577479830943048,0.018048161640763283,-0.544315755367279,0.0,0.0,0.00022577479830943048,-0.018048161640763283,0.0,0.0,0.0,0.0,0.0,0.0,0.0,0.0,0.0,0.0,0.0,0.16569536924362183,0.0,-0.0,-0.0,0.0,0.0,2.116075277328491,0.41085729002952576,0.9355061054229736,9.220258712768555,0.04453082010149956,-0.10110359638929367,0.0,0.0,-0.02882697992026806,0.08907640725374222,0.0157038401812315,-0.012027189135551453,-0.12421584129333496,0.004381856415420771,-4.194187931716442e-05,9.222063064575195,4.820740699768066,4.401321887969971,1688.0,1635.0,0.0,1437208473,20286,943
827477062,2,320,27490,8735,409583939,409584,403401,536,-8822,7810,-1061,-234,80,-15,29.1875,-0.038817618042230606,-0.08648696541786194,1.0219310522079468,-4.757721900939941,4.291664123535156,-1.0416319370269775,2.939598798751831,1.327296257019043,2.224644184112549,1500,1500,1387,1500,2000,1000,1000,1000,1425,1532,1498,1689,1635,1,1,1,1,1,1,1,0,1,1,0,0,stabilized_mix,-0.13996978104114532,0.3450627624988556,0.26396510004997253,-0.0005901877884753048,0.018581949174404144,-0.5424506664276123,0.0,0.0,0.0005901877884753048,-0.018581949174404144,0.0,0.0,0.0,0.0,0.0,0.0,0.0,0.0,0.0,0.0,0.0,0.16569536924362183,0.0,-0.0,-0.0,0.0,0.0,2.116075277328491,0.3959943652153015,0.8807671666145325,9.220176696777344,0.04292229562997818,-0.09523677080869675,0.0,0.0,-0.04041734337806702,0.04480651021003723,0.0025049522519111633,-0.050430260598659515,-0.12359985709190369,0.0027269860729575157,-4.230553167872131e-05,9.231942176818848,4.827498435974121,4.404443264007568,1689.0,1635.0,0.0,4268201137,20286,943
827477062,2,320,27491,8735,409587972,409588,403405,534,11996,8675,1843,16,-236,500,29.171875,0.043651923537254333,0.003946661949157715,0.8901925683021545,-10.793935775756836,1.9548031091690063,-2.924760341644287,3.1337008476257324,1.3662102222442627,2.22170352935791,1500,1500,1387,1500,2000,1000,1000,1000,1425,1500,1484,1688,1635,1,1,1,1,1,1,1,0,1,1,0,0,stabilized_mix,-0.03518923372030258,-0.12315510213375092,0.348045289516449,-0.0009308868902735412,0.017832310870289803,-0.540717601776123,0.0,0.0,0.0009308868902735412,-0.017832310870289803,0.0,0.0,0.0,0.0,0.0,0.0,0.0,0.0,0.0,0.0,0.0,0.16543462872505188,0.0,-0.0,-0.0,0.0,0.0,2.115814685821533,0.40849602222442627,0.9354974031448364,9.221024513244629,0.0442715585231781,-0.10107313096523285,0.0,0.0,-0.01840793900191784,0.10164404660463333,0.02586361952126026,0.0005709156394004822,-0.12344587594270706,0.0076570045202970505,-4.052612348459661e-05,9.224111557006836,4.814686298370361,4.409425258636475,1688.0,1635.0,0.0,202549526,20286,943
827477062,2,320,27492,8735,409592004,409592,403409,528,-13337,6691,-2296,-215,113,38,29.125,-0.0020352862775325775,0.11857688426971436,1.005752444267273,-4.109304904937744,4.5539679527282715,0.27136659622192383,2.9763002395629883,1.3146302700042725,2.213243007659912,1500,1500,1387,1500,2000,1000,1000,1000,1425,1537,1500,1689,1634,1,1,1,1,1,1,1,0,1,1,0,0,stabilized_mix,-0.15850116312503815,0.2833300232887268,0.20979225635528564,-0.00145514658652246,0.018675535917282104,-0.5390819311141968,0.0,0.0,0.00145514658652246,-0.018675535917282104,0.0,0.0,0.0,0.0,0.0,0.0,0.0,0.0,0.0,0.0,0.0,0.16543462872505188,0.0,-0.0,-0.0,0.0,0.0,2.115814685821533,0.3926859498023987,0.8923079967498779,9.219883918762207,0.0425654761493206,-0.0964803397655487,0.0,0.0,-0.04288898780941963,0.03870118036866188,-0.00032351166009902954,-0.057779159396886826,-0.12300288677215576,-0.0007104360847733915,-4.3299602111801505e-05,9.235296249389648,4.834146499633789,4.401150226593018,1689.0,1634.0,0.0,425880783,20287,944
827477062,2,320,27493,8735,409596038,409596,403413,528,14158,11259,3010,13,-239,413,29.125,0.0033126100897789,-0.18788108229637146,0.9526968598365784,-11.097963333129883,1.0392780303955078,-3.7139892578125,3.111467123031616,1.3491814136505127,2.208244800567627,1500,1500,1387,1500,2000,1000,1000,1000,1425,1497,1478,1688,1636,1,1,1,1,1,1,1,0,1,1,0,0,stabilized_mix,-0.05675186589360237,-0.005981042981147766,0.3087812066078186,-0.0020629509817808867,0.017809545621275902,-0.5374279022216797,0.0,0.0,0.0020629509817808867,-0.017809545621275902,0.0,0.0,0.0,0.0,0.0,0.0,0.0,0.0,0.0,0.0,0.0,0.16526517271995544,0.0,-0.0,-0.0,0.0,0.0,2.115645170211792,0.4036921560764313,0.9291797280311584,9.221543312072754,0.043749138712882996,-0.10036537796258926,0.0,0.0,-0.009786095470190048,0.10450112074613571,0.03396304324269295,0.004135742783546448,-0.12274117767810822,0.009723201394081116,-3.955629654228687e-05,9.226943016052246,4.811253070831299,4.415689945220947,1688.0,1636.0,0.0,1747104530,20287,944
827477062,2,320,27494,8735,409599062,409600,403416,534,-12010,7604,-2060,-219,129,6,29.171875,-0.01860043779015541,0.03185814619064331,1.0234912633895874,-4.376756191253662,4.205279350280762,-0.07602143287658691,2.978830099105835,1.3016276359558105,2.201932430267334,1500,1500,1387,1500,2000,1000,1000,1000,1425,1535,1498,1689,1635,1,1,1,1,1,1,1,0,1,1,0,0,stabilized_mix,-0.1712544858455658,0.33137786388397217,0.18236783146858215,-0.0025220562238246202,0.018623538315296173,-0.5363410711288452,0.0,0.0,0.0025220562238246202,-0.018623538315296173,0.0,0.0,0.0,0.0,0.0,0.0,0.0,0.0,0.0,0.0,0.0,0.16526517271995544,0.0,-0.0,-0.0,0.0,0.0,2.115645170211792,0.3890853524208069,0.893160343170166,9.220112800598145,0.04217460751533508,-0.0965692326426506,0.0,0.0,-0.039604075253009796,0.04121899604797363,0.002570532262325287,-0.05535023659467697,-0.12241066992282867,0.000199023648747243,-4.277404514141381e-05,9.234284400939941,4.83101224899292,4.403271675109863,1689.0,1635.0,0.0,2139984780,20287,944
827477062,2,320,27495,8735,409603148,409604,403420,528,13775,10769,2453,66,-191,457,29.125,0.02405402436852455,-0.11175370216369629,0.9297162890434265,-11.112528800964355,0.6729309558868408,-2.4026927947998047,3.141667366027832,1.3320155143737793,2.2004151344299316,1500,1500,1387,1500,2000,1000,1000,1000,1425,1498,1476,1688,1635,1,1,1,1,1,1,1,0,1,1,0,0,stabilized_mix,-0.06833333522081375,-0.046896182000637054,0.2821488082408905,-0.00299346586689353,0.018500031903386116,-0.5348546504974365,0.0,0.0,0.00299346586689353,-0.018500031903386116,0.0,0.0,0.0,0.0,0.0,0.0,0.0,0.0,0.0,0.0,0.0,0.16526517271995544,0.0,-0.0,-0.0,0.0,0.0,2.115645170211792,0.3992305397987366,0.938230574131012,9.221512794494629,0.04326637089252472,-0.1013261005282402,0.0,0.0,-0.006336502730846405,0.10463862866163254,0.036929868161678314,0.003312528133392334,-0.12233121693134308,0.006290235091000795,-4.061430809088051e-05,9.22785472869873,4.8169989585876465,4.410855770111084,1688.0,1635.0,0.0,809484075,20287,944
827477062,2,320,27496,8735,409607206,409608,403424,538,-14158,6235,-1497,-168,97,87,29.203125,0.015426382422447205,0.2184663563966751,0.987986147403717,-4.011621475219727,3.959113121032715,0.9486042261123657,3.018883228302002,1.2848820686340332,2.195467472076416,1500,1500,1387,1500,2000,1000,1000,1000,1425,1538,1497,1689,1634,1,1,1,1,1,1,1,0,1,1,0,0,stabilized_mix,-0.166568785905838,0.24007607996463776,0.14326146245002747,-0.0035190419293940067,0.018699681386351585,-0.5335213541984558,0.0,0.0,0.0035190419293940067,-0.018699681386351585,0.0,0.0,0.0,0.0,0.0,0.0,0.0,0.0,0.0,0.0,0.0,0.16515502333641052,0.0,-0.0,-0.0,0.0,0.0,2.115535020828247,0.384899765253067,0.9057405591011047,9.219728469848633,0.04172317683696747,-0.09792422503232956,0.0,0.0,-0.03728731349110603,0.037781842052936554,0.004435863345861435,-0.060142382979393005,-0.12207216024398804,-0.0024834400974214077,-4.3594453018158674e-05,9.236518859863281,4.836231708526611,4.40028715133667,1689.0,1634.0,0.0,1109338049,20287,944
827477062,2,320,27497,8735,409611215,409612,403428,540,13181,12024,3950,6,-165,325,29.21875,-0.04003903269767761,-0.2808920741081238,0.9905984997749329,-10.495807647705078,0.290552020072937,-2.890028476715088,3.09891676902771,1.2990529537200928,2.1917738914489746,1500,1500,1387,1500,2000,1000,1000,1000,1425,1501,1475,1688,1636,1,1,1,1,1,1,1,0,1,1,0,0,stabilized_mix,-0.1002417504787445,0.1158839538693428,0.2416580468416214,-0.003941514529287815,0.018569832667708397,-0.5321048498153687,0.0,0.0,0.003941514529287815,-0.018569832667708397,0.0,0.0,0.0,0.0,0.0,0.0,0.0,0.0,0.0,0.0,0.0,0.16515502333641052,0.0,-0.0,-0.0,0.0,0.0,2.115535020828247,0.38935601711273193,0.9263952970504761,9.221868515014648,0.0421958863735199,-0.10004305094480515,0.0,0.0,-0.002735811984166503,0.09882759302854538,0.03946007415652275,-0.0012154579162597656,-0.12187877297401428,0.007566077169030905,-4.000947228632867e-05,9.229059219360352,4.814577102661133,4.414482593536377,1688.0,1636.0,0.0,1891351347,20287,944
827477062,2,320,27498,8735,409615226,409616,403432,536,-11925,4456,-2803,-142,66,251,29.1875,0.057925451546907425,0.34873631596565247,0.9310601949691772,-5.028535842895508,3.785374402999878,1.4655333757400513,3.0698401927948,1.2647247314453125,2.1907882690429688,1500,1500,1387,1500,2000,1000,1000,1000,1425,1533,1496,1689,1634,1,1,1,1,1,1,1,0,1,1,0,0,stabilized_mix,-0.15510360896587372,0.10813705623149872,0.13905824720859528,-0.004490784369409084,0.01881428435444832,-0.5309423804283142,0.0,0.0,0.004490784369409084,-0.01881428435444832,0.0,0.0,0.0,0.0,0.0,0.0,0.0,0.0,0.0,0.0,0.0,0.16543343663215637,0.0,-0.0,-0.0,0.0,0.0,2.1158134937286377,0.37994953989982605,0.9217010736465454,9.219329833984375,0.04118896275758743,-0.09964223206043243,0.0,0.0,-0.03565256670117378,0.04736128821969032,0.0055363960564136505,-0.05228094384074211,-0.12182716280221939,-0.0038367577362805605,-4.398237797431648e-05,9.232085227966309,4.835954189300537,4.396130561828613,1689.0,1634.0,0.0,467324775,20287,944
827477062,2,320,27499,8735,409619229,409620,403436,538,8019,11719,3821,-70,-72,171,29.203125,-0.07566690444946289,-0.3386002480983734,1.0373789072036743,-8.838953018188477,0.6057869791984558,-2.3059706687927246,3.05305552482605,1.2629106044769287,2.1852917671203613,1500,1500,1387,1500,2000,1000,1000,1000,1425,1510,1478,1688,1635,1,1,1,1,1,1,1,0,1,1,0,0,stabilized_mix,-0.13973569869995117,0.28266456723213196,0.19281673431396484,-0.00492376834154129,0.01888767071068287,-0.5295699238777161,0.0,0.0,0.00492376834154129,-0.01888767071068287,0.0,0.0,0.0,0.0,0.0,0.0,0.0,0.0,0.0,0.0,0.0,0.16543343663215637,0.0,-0.0,-0.0,0.0,0.0,2.1158134937286377,0.37871187925338745,0.9153211116790771,9.221294403076172,0.04104620963335037,-0.09887619316577911,0.0,0.0,-0.005704391747713089,0.08323197811841965,0.03534181788563728,-0.015644215047359467,-0.12153936177492142,0.006037017330527306,-4.042577347718179e-05,9.228185653686523,4.816221714019775,4.411963939666748,1688.0,1635.0,0.0,1952519020,20287,944
827477062,2,320,27506,8741,409647459,409648,403464,534,14400,11354,3356,118,-149,379,29.171875,-0.005712553858757019,-0.19747745990753174,0.9703682661056519,-10.218430519104004,-1.968104362487793,-1.3866961002349854,3.12030029296875,1.1458847522735596,2.1933727264404297,1500,1500,1387,1500,2000,1000,1000,1000,1425,1504,1465,1689,1635,1,1,1,1,1,1,1,0,1,1,0,0,stabilized_mix,-0.12409064173698425,0.07449297606945038,0.1362280547618866,-0.008559801615774632,0.020233890041708946,-0.522125244140625,0.0,0.0,0.008559801615774632,-0.020233890041708946,0.0,0.0,0.0,0.0,0.0,0.0,0.0,0.0,0.0,0.0,0.0,0.16974246501922607,0.0,-0.0,0.0,0.0,0.0,2.1201224327087402,0.3415523171424866,0.9504919648170471,9.216402053833008,0.03704223036766052,-0.10260956734418869,0.0,0.0,0.018542487174272537,0.09627290815114975,0.05558471754193306,-0.00633665919303894,-0.12196248024702072,0.0036303619854152203,-4.141626413911581e-05,9.230843544006348,4.822503089904785,4.4083404541015625,1689.0,1635.0,0.0,2860269076,20287,944
827477062,2,320,27507,8741,409651495,409652,403468,540,-13400,5604,-2736,-62,175,123,29.21875,0.029746659100055695,0.2836870849132538,0.9803462624549866,-3.4418656826019287,1.343666911125183,3.33188533782959,3.0413076877593994,1.0874011516571045,2.197692394256592,1500,1500,1387,1500,2000,1000,1000,1000,1425,1543,1485,1690,1633,1,1,1,1,1,1,1,0,1,1,0,0,stabilized_mix,-0.21789292991161346,0.22000861167907715,0.004568648990243673,-0.009399213828146458,0.02139873057603836,-0.5214310884475708,0.0,0.0,0.009399213828146458,-0.02139873057603836,0.0,0.0,0.0,0.0,0.0,0.0,0.0,0.0,0.0,0.0,0.0,0.16974246501922607,0.0,-0.0,0.0,0.0,0.0,2.1201224327087402,0.32994312047958374,0.91916823387146,9.214263916015625,0.035792574286460876,-0.09939957410097122,0.0,0.0,-0.012662290595471859,0.03243504837155342,0.023130282759666443,-0.0669645220041275,-0.12218865752220154,-0.00872285570949316,-4.581906250678003e-05,9.237433433532715,4.847811698913574,4.389621257781982,1690.0,1633.0,0.0,3056454670,20287,944
827477062,2,320,27508,8741,409655529,409656,403472,536,11071,12479,3523,50,-83,219,29.1875,-0.049616601318120956,-0.3226683735847473,1.0403324365615845,-8.826910018920898,-2.2076728343963623,-1.0845146179199219,3.0586695671081543,1.08475661277771,2.2003917694091797,1500,1500,1387,1500,2000,1000,1000,1000,1425,1511,1464,1689,1635,1,1,1,1,1,1,1,0,1,1,0,0,stabilized_mix,-0.1574362814426422,0.23191985487937927,0.07053466141223907,-0.009506704285740852,0.020787803456187248,-0.5205932855606079,0.0,0.0,0.009506704285740852,-0.020787803456187248,0.0,0.0,0.0,0.0,0.0,0.0,0.0,0.0,0.0,0.0,0.0,0.1708652377128601,0.0,-0.0,0.0,0.0,0.0,2.1212451457977295,0.3224647641181946,0.9321497678756714,9.215389251708984,0.034977711737155914,-0.10065282136201859,0.0,0.0,0.020801866427063942,0.08317183703184128,0.05577957630157471,-0.017480984330177307,-0.12232999503612518,0.002839252818375826,-4.182176780886948e-05,9.231154441833496,4.824686050415039,4.406468391418457,1689.0,1635.0,0.0,2683181646,20287,944
827477062,2,320,27509,8741,409659559,409660,403476,540,-8793,4693,-2025,5,85,285,29.21875,0.04605405777692795,0.3598530888557434,0.9325124621391296,-4.793552398681641,0.4008394181728363,3.0214056968688965,3.087986707687378,1.043424129486084,2.20814847946167,1500,1500,1387,1500,2000,1000,1000,1000,1425,1536,1481,1690,1633,1,1,1,1,1,1,1,0,1,1,0,0,stabilized_mix,-0.1989554613828659,0.07559427618980408,-0.014964023604989052,-0.01036220882087946,0.021840866655111313,-0.5201247930526733,0.0,0.0,0.01036220882087946,-0.021840866655111313,0.0,0.0,0.0,0.0,0.0,0.0,0.0,0.0,0.0,0.0,0.0,0.1708652377128601,0.0,-0.0,0.0,0.0,0.0,2.1212451457977295,0.3154670000076294,0.9359015822410583,9.21334171295166,0.03422686830163002,-0.10118726640939713,0.0,0.0,-0.0037777614779770374,0.045177437365055084,0.03044910728931427,-0.05600982904434204,-0.1227361410856247,-0.00791002158075571,-4.572610487230122e-05,9.232091903686523,4.844676494598389,4.387415409088135,1690.0,1633.0,0.0,744845540,20287,944
827477062,2,320,27510,8741,409663592,409664,403480,544,4026,11619,2457,-24,63,54,29.25,-0.08580248802900314,-0.32798200845718384,1.0868573188781738,-6.436607360839844,-2.1232471466064453,0.5640795230865479,2.9858107566833496,1.0069730281829834,2.210611343383789,1500,1500,1387,1500,2000,1000,1000,1000,1425,1524,1467,1689,1634,1,1,1,1,1,1,1,0,1,1,0,0,stabilized_mix,-0.21980521082878113,0.394502192735672,-0.01769614964723587,-0.011020452715456486,0.02223084308207035,-0.5194693803787231,0.0,0.0,0.011020452715456486,-0.02223084308207035,0.0,0.0,0.0,0.0,0.0,0.0,0.0,0.0,0.0,0.0,0.0,0.1708652377128601,0.0,-0.0,0.0,0.0,0.0,2.1212451457977295,0.2998228073120117,0.9070999026298523,9.215622901916504,0.032522719353437424,-0.09798014909029007,0.0,0.0,0.020005857571959496,0.06064759939908981,0.05252857506275177,-0.037332549691200256,-0.12286509573459625,-0.001476756762713194,-4.3519685277715325e-05,9.234786033630371,4.834991455078125,4.399794578552246,1689.0,1634.0,0.0,2735802481,20288,945
827477062,2,320,27511,8741,409667624,409668,403484,534,220,5308,-1604,111,20,415,29.171875,0.07453151047229767,0.2852654457092285,0.8992959260940552,-6.592992782592773,-1.1508440971374512,2.864713430404663,3.1060783863067627,0.9979416728019714,2.2226643562316895,1500,1500,1387,1500,2000,1000,1000,1000,1425,1525,1472,1690,1633,1,1,1,1,1,1,1,0,1,1,0,0,stabilized_mix,-0.16519665718078613,-0.004527688026428223,-0.021815847605466843,-0.011515290476381779,0.022049056366086006,-0.5191858410835266,0.0,0.0,0.011515290476381779,-0.022049056366086006,0.0,0.0,0.0,0.0,0.0,0.0,0.0,0.0,0.0,0.0,0.0,0.17194506525993347,0.0,-0.0,0.0,0.0,0.0,2.1223249435424805,0.29921451210975647,0.945030689239502,9.2130708694458,0.03246576339006424,-0.10212229937314987,0.0,0.0,0.010846594348549843,0.06213831901550293,0.04331235587596893,-0.03998398035764694,-0.12349618971347809,-0.007499802391976118,-4.584860289469361e-05,9.229095458984375,4.8437910079956055,4.385304927825928,1690.0,1633.0,0.0,812879396,20288,945
827477062,2,320,27512,8741,409671686,409672,403488,528,-4802,8975,874,-67,125,-60,29.125,-0.08625349402427673,-0.1994808316230774,1.0737175941467285,-3.844662666320801,-1.3259137868881226,1.4786144495010376,2.916384220123291,0.9313927292823792,2.2250661849975586,1500,1500,1387,1500,2000,1000,1000,1000,1425,1538,1473,1690,1634,1,1,1,1,1,1,1,0,1,1,0,0,stabilized_mix,-0.25794851779937744,0.49099770188331604,-0.09497124701738358,-0.01225748285651207,0.022949740290641785,-0.5187872052192688,0.0,0.0,0.01225748285651207,-0.022949740290641785,0.0,0.0,0.0,0.0,0.0,0.0,0.0,0.0,0.0,0.0,0.0,0.17194506525993347,0.0,-0.0,0.0,0.0,0.0,2.1223249435424805,0.2784285247325897,0.8832127451896667,9.213961601257324,0.030208919197320938,-0.09547733515501022,0.0,0.0,0.012495400384068489,0.03623206913471222,0.042704321444034576,-0.059245266020298004,-0.12362195551395416,-0.00387100363150239,-4.4622516725212336e-05,9.238578796386719,4.84240198135376,4.396176815032959,1690.0,1634.0,0.0,2096653518,20288,945
827477062,2,320,27513,8741,409675690,409676,403492,538,9149,6944,280,203,-51,445,29.203125,0.05029808729887009,0.09586155414581299,0.8968274593353271,-8.045459747314453,-2.9746713638305664,1.581835150718689,3.08071231842041,0.9345777630805969,2.235912799835205,1500,1500,1387,1500,2000,1000,1000,1000,1425,1517,1463,1690,1634,1,1,1,1,1,1,1,0,1,1,0,0,stabilized_mix,-0.16386571526527405,-0.00011239573359489441,-0.026537500321865082,-0.01252001617103815,0.022743817418813705,-0.518616259098053,0.0,0.0,0.01252001617103815,-0.022743817418813705,0.0,0.0,0.0,0.0,0.0,0.0,0.0,0.0,0.0,0.0,0.0,0.17404696345329285,0.0,-0.0,0.0,0.0,0.0,2.12442684173584,0.2749648094177246,0.9438608884811401,9.211930274963379,0.029839912429451942,-0.10193460434675217,0.0,0.0,0.028039461001753807,0.07583706825971603,0.05787937343120575,-0.026097536087036133,-0.12418987601995468,-0.004141234792768955,-4.491588333621621e-05,9.230525016784668,4.839841842651367,4.390683174133301,1690.0,1634.0,0.0,2723072802,20288,945
827477062,2,320,27514,8741,409679724,409680,403496,548,-11393,6954,-1818,-53,221,-87,29.28125,-0.040853582322597504,0.006987273693084717,1.0474767684936523,-1.8085675239562988,-1.0433934926986694,3.90069580078125,2.886901378631592,0.8548044562339783,2.2433204650878906,1500,1500,1387,1500,2000,1000,1000,1000,1425,1549,1476,1691,1633,1,1,1,1,1,1,1,0,1,1,0,0,stabilized_mix,-0.28351762890815735,0.46640896797180176,-0.1508091688156128,-0.013412239030003548,0.024003271013498306,-0.5184471607208252,0.0,0.0,0.013412239030003548,-0.024003271013498306,0.0,0.0,0.0,0.0,0.0,0.0,0.0,0.0,0.0,0.0,0.0,0.17404696345329285,0.0,-0.0,0.0,0.0,0.0,2.12442684173584,0.2562215030193329,0.8726537227630615,9.210993766784668,0.02780975215137005,-0.09439198672771454,0.0,0.0,0.009836100041866302,0.01704941689968109,0.0376458540558815,-0.07734256982803345,-0.12457773089408875,-0.010211998596787453,-4.717643605545163e-05,9.245162010192871,4.858463287353516,4.3866987228393555,1691.0,1633.0,0.0,1034474153,20288,945
827477062,2,320,27515,8741,409683757,409684,403500,556,14262,10368,2557,232,-100,368,29.34375,0.00954074040055275,-0.12050704658031464,0.9552825689315796,-8.461525917053223,-4.528814792633057,0.49945592880249023,3.0297341346740723,0.8628005385398865,2.254676342010498,1500,1500,1387,1500,2000,1000,1000,1000,1425,1513,1456,1690,1634,1,1,1,1,1,1,1,0,1,1,0,0,stabilized_mix,-0.1648631989955902,0.06286345422267914,-0.042111679911613464,-0.014183123596012592,0.02422938123345375,-0.5182926058769226,0.0,0.0,0.014183123596012592,-0.02422938123345375,0.0,0.0,0.0,0.0,0.0,0.0,0.0,0.0,0.0,0.0,0.0,0.17404696345329285,0.0,-0.0,0.0,0.0,0.0,2.12442684173584,0.24958693981170654,0.9291980266571045,9.213565826416016,0.027082446962594986,-0.10026836395263672,0.0,0.0,0.04268134385347366,0.07974477857351303,0.06976379454135895,-0.020523585379123688,-0.12517233192920685,-0.0013075725873932242,-4.426791565492749e-05,9.237977981567383,4.840328693389893,4.39764928817749,1690.0,1634.0,0.0,2986667772,20288,945
827477062,2,320,27516,8741,409687790,409688,403504,538,-14138,6050,-3415,20,195,-8,29.203125,0.010992400348186493,0.21440573036670685,1.0103508234024048,-1.0857698917388916,-1.712072491645813,4.275274753570557,2.898348093032837,0.7826539874076843,2.264535903930664,1500,1500,1387,1500,2000,1000,1000,1000,1425,1554,1474,1691,1633,1,1,1,1,1,1,1,0,1,1,0,0,stabilized_mix,-0.2786140441894531,0.3357579708099365,-0.17798854410648346,-0.01487751118838787,0.024663012474775314,-0.5183173418045044,0.0,0.0,0.01487751118838787,-0.024663012474775314,0.0,0.0,0.0,0.0,0.0,0.0,0.0,0.0,0.0,0.0,0.0,0.17646315693855286,0.0,-0.0,0.0,0.0,0.0,2.126843214035034,0.23212775588035583,0.8752502202987671,9.208121299743652,0.025203686207532883,-0.09468674659729004,0.0,0.0,0.01614478975534439,0.010238775983452797,0.041348475962877274,-0.08444797247648239,-0.1256885826587677,-0.011192643083631992,-4.79084555990994e-05,9.248957633972168,4.864021301269531,4.384936809539795,1691.0,1633.0,0.0,421852140,20288,945
827477062,2,320,27517,8741,409691821,409692,403508,536,13417,12298,2662,190,-6,212,29.1875,-0.029771704226732254,-0.2988413870334625,1.0238776206970215,-7.314479827880859,-5.344163417816162,1.1080971956253052,2.9418132305145264,0.7773893475532532,2.274824619293213,1500,1500,1387,1500,2000,1000,1000,1000,1425,1518,1453,1690,1634,1,1,1,1,1,1,1,0,1,1,0,0,stabilized_mix,-0.18425649404525757,0.21897372603416443,-0.08859605342149734,-0.015586700290441513,0.02483578398823738,-0.5182145237922668,0.0,0.0,0.015586700290441513,-0.02483578398823738,0.0,0.0,0.0,0.0,0.0,0.0,0.0,0.0,0.0,0.0,0.0,0.17646315693855286,0.0,-0.0,0.0,0.0,0.0,2.126843214035034,0.21923759579658508,0.9045642018318176,9.211482048034668,0.023795977234840393,-0.09761836379766464,0.0,0.0,0.050376906991004944,0.06895015388727188,0.07417288422584534,-0.02866820991039276,-0.12622728943824768,-0.0029009918216615915,-4.5194843551144004e-05,9.240676879882812,4.846312999725342,4.394364356994629,1690.0,1634.0,0.0,2404292751,20288,945
827477062,2,320,27525,8748,409723150,409724,403539,534,-6972,8447,-362,76,246,-201,29.171875,-0.058420002460479736,-0.15536916255950928,1.0828932523727417,0.4116635322570801,-5.615546703338623,4.607534408569336,2.6120059490203857,0.4421148896217346,2.388430595397949,1500,1500,1389,1500,2000,1000,1000,1000,1427,1556,1464,1692,1632,1,1,1,1,1,1,1,0,1,1,0,0,stabilized_mix,-0.2378043234348297,0.5467516779899597,-0.26145610213279724,-0.019623998552560806,0.02955111674964428,-0.5200157165527344,0.0,0.0,0.019623998552560806,-0.02955111674964428,0.0,0.0,0.0,0.0,0.0,0.0,0.0,0.0,0.0,0.0,0.0,0.217617005109787,0.0,-0.0,0.0,0.0,0.0,2.133476972579956,0.0389452800154686,0.7800202369689941,9.204915046691895,0.004230896942317486,-0.08439995348453522,0.0,0.0,0.05297287553548813,-0.0038833264261484146,0.05720377340912819,-0.08828327804803848,-0.13217568397521973,-0.0120624965056777,-5.048332968726754e-05,9.256043434143066,4.880438327789307,4.37560510635376,1692.0,1632.0,0.0,3724884472,20288,945
827477062,2,320,27526,8748,409727182,409728,403543,544,11118,8128,1123,358,-59,312,29.25,0.046011269092559814,0.0326228141784668,0.9205529689788818,-4.6025495529174805,-7.6766357421875,2.8099968433380127,2.7538933753967285,0.4378412365913391,2.4083876609802246,1500,1500,1390,1500,2000,1000,1000,1000,1428,1538,1459,1691,1631,1,1,1,1,1,1,1,0,1,1,0,0,stabilized_mix,-0.12360715121030807,0.04062916338443756,-0.16134798526763916,-0.02000313065946102,0.02904362417757511,-0.5204162001609802,0.0,0.0,0.02000313065946102,-0.02904362417757511,0.0,0.0,0.0,0.0,0.0,0.0,0.0,0.0,0.0,0.0,0.0,0.2481836974620819,0.0,-0.0,0.0,0.0,0.0,2.1467835903167725,-0.07061117887496948,0.9480529427528381,9.186625480651855,-0.007686150725930929,-0.10262041538953781,0.0,0.0,0.07255982607603073,0.04350345581769943,0.06487367302179337,-0.05911695957183838,-0.1332206428050995,-0.007356554735451937,-4.920203355140984e-05,9.222100257873535,4.857059955596924,4.365039825439453,1691.0,1631.0,0.0,2651373219,20288,945
827477062,2,320,27527,8748,409731212,409732,403547,534,-13249,6677,-1874,87,291,-195,29.171875,-0.040486354380846024,0.07459241151809692,1.0465292930603027,2.135666608810425,-5.406594276428223,5.671392440795898,2.567009687423706,0.3440380096435547,2.4213013648986816,1500,1500,1392,1500,2000,1000,1000,1000,1429,1562,1470,1694,1633,1,1,1,1,1,1,1,0,1,1,0,0,stabilized_mix,-0.26100847125053406,0.45122644305229187,-0.2871481478214264,-0.02073097787797451,0.030309319496154785,-0.5208060145378113,0.0,0.0,0.02073097787797451,-0.030309319496154785,0.0,0.0,0.0,0.0,0.0,0.0,0.0,0.0,0.0,0.0,0.0,0.2481836974620819,0.0,-0.0,0.0,0.0,0.0,2.1122636795043945,-0.04048290103673935,0.7196098566055298,9.231999397277832,-0.004385035485029221,-0.07770643383264542,0.0,0.0,0.05085214599967003,-0.02008718065917492,0.04646711051464081,-0.09779361635446548,-0.13389679789543152,-0.01484767161309719,-5.206058267503977e-05,9.286344528198242,4.903475284576416,4.382869243621826,1694.0,1633.0,0.0,2150873315,20288,945
827477062,2,320,27528,8748,409735243,409736,403551,540,14147,10807,2512,363,-25,219,29.21875,0.002538006752729416,-0.17558766901493073,0.9759860634803772,-4.7105889320373535,-9.086980819702148,2.442178726196289,2.6782548427581787,0.33840876817703247,2.4405860900878906,1500,1500,1392,1500,2000,1000,1000,1000,1429,1541,1465,1688,1627,1,1,1,1,1,1,1,0,1,1,0,0,stabilized_mix,-0.14163996279239655,0.10153234004974365,-0.16990719735622406,-0.02068692445755005,0.02955770120024681,-0.5211725234985352,0.0,0.0,0.02068692445755005,-0.02955770120024681,0.0,0.0,0.0,0.0,0.0,0.0,0.0,0.0,0.0,0.0,0.0,0.3499999940395355,0.0,-0.0,0.0,0.0,0.0,2.2140800952911377,-0.281934916973114,0.9983545541763306,9.104721069335938,-0.030955901369452477,-0.10904799401760101,0.0,0.0,0.08666310459375381,0.044925183057785034,0.05570720136165619,-0.06412281095981598,-0.13490654528141022,-0.00639360910281539,-4.945509135723114e-05,9.137646675109863,4.816098690032959,4.321547985076904,1688.0,1627.0,0.23690202832221985,653229170,20288,945
827477062,2,320,27529,8748,409739242,409740,403555,532,-14233,5489,-3195,162,240,-84,29.15625,0.025975637137889862,0.2712761461734772,0.9983847737312317,2.392547369003296,-5.724727153778076,6.226088523864746,2.561467170715332,0.2631937861442566,2.45831298828125,1500,1500,1392,1500,2000,1000,1000,1000,1429,1561,1477,1690,1627,1,1,1,1,1,1,1,0,1,1,0,0,stabilized_mix,-0.22298231720924377,0.27732712030410767,-0.295866459608078,-0.021436333656311035,0.0307768564671278,-0.5216993689537048,0.0,0.0,0.021436333656311035,-0.0307768564671278,0.0,0.0,0.0,0.0,0.0,0.0,0.0,0.0,0.0,0.0,0.0,0.3499999940395355,0.0,-0.0,0.0,0.0,0.0,2.2140800952911377,-0.1681894063949585,0.6688138246536255,9.112297058105469,-0.01845531538128853,-0.07321792095899582,0.0,0.0,0.05455169454216957,-0.02279890514910221,0.03609637916088104,-0.09601682424545288,-0.1358347237110138,-0.016299862414598465,-5.324708763509989e-05,9.160430908203125,4.8464508056640625,4.3139801025390625,1690.0,1627.0,0.23690202832221985,3198006840,20289,946
827477062,2,320,27530,8748,409743246,409744,403559,534,12364,12725,3283,336,25,52,29.171875,-0.04413362964987755,-0.3316619396209717,1.0483559370040894,-3.3935651779174805,-9.835238456726074,1.5462812185287476,2.580200672149658,0.24086087942123413,2.471562385559082,1500,1500,1394,1500,2000,1000,1000,1000,1431,1543,1464,1690,1630,1,1,1,1,1,1,1,0,1,1,0,0,stabilized_mix,-0.15615347027778625,0.2442169189453125,-0.206974595785141,-0.021952686831355095,0.030862167477607727,-0.5220528841018677,0.0,0.0,0.021952686831355095,-0.030862167477607727,0.0,0.0,0.0,0.0,0.0,0.0,0.0,0.0,0.0,0.0,0.0,0.3499999940395355,0.0,-0.0,0.0,0.0,0.0,2.1795599460601807,-0.34088262915611267,0.9152604341506958,9.149006843566895,-0.037241749465465546,-0.0995517447590828,0.0,0.0,0.09334525465965271,0.03220798447728157,0.056103505194187164,-0.06734375655651093,-0.13652846217155457,-0.004048154689371586,-4.920180072076619e-05,9.184242248535156,4.838130474090576,4.346112251281738,1690.0,1630.0,0.23690202832221985,39059832,20289,946
827477062,2,320,27531,8748,409747282,409748,403563,542,-9195,4848,-2636,216,183,79,29.234375,0.061086248606443405,0.3525245189666748,0.9509744644165039,1.2781212329864502,-6.213193893432617,5.7278151512146,2.5618231296539307,0.1865190863609314,2.490086078643799,1500,1500,1395,1500,2000,1000,1000,1000,1432,1556,1483,1692,1629,1,1,1,1,1,1,1,0,1,1,0,0,stabilized_mix,-0.1718379557132721,0.10912461578845978,-0.28688111901283264,-0.022413844242691994,0.03096286952495575,-0.522696852684021,0.0,0.0,0.022413844242691994,-0.03096286952495575,0.0,0.0,0.0,0.0,0.0,0.0,0.0,0.0,0.0,0.0,0.0,0.3500000238418579,0.0,-0.0,0.0,0.0,0.0,2.1623001098632812,-0.29199668765068054,0.7019416093826294,9.174113273620605,-0.031817588955163956,-0.0763368010520935,0.0,0.0,0.05880741775035858,-0.012097322382032871,0.026989828795194626,-0.0884341225028038,-0.13749836385250092,-0.014995384961366653,-5.337278707884252e-05,9.213459014892578,4.873593807220459,4.339865684509277,1692.0,1629.0,0.775568962097168,2924193440,20289,946
827477062,2,320,27532,8748,409751317,409752,403567,542,5299,11671,2396,230,154,-119,29.234375,-0.06158486753702164,-0.3497629165649414,1.0950372219085693,-1.0807034969329834,-9.254874229431152,2.794903039932251,2.472412586212158,0.14827066659927368,2.5019397735595703,1500,1500,1395,1500,2000,1000,1000,1000,1432,1549,1476,1691,1630,1,1,1,1,1,1,1,0,1,1,0,0,stabilized_mix,-0.1593123823404312,0.39172181487083435,-0.2654034495353699,-0.022827139124274254,0.031249787658452988,-0.5230972170829773,0.0,0.0,0.022827139124274254,-0.031249787658452988,0.0,0.0,0.0,0.0,0.0,0.0,0.0,0.0,0.0,0.0,0.0,0.3500000238418579,0.0,-0.0,0.0,0.0,0.0,2.1623001098632812,-0.46344342827796936,0.8015138506889343,9.172318458557129,-0.05048338323831558,-0.08710281550884247,0.0,0.0,0.08761383593082428,0.010230779647827148,0.0371304526925087,-0.07687203586101532,-0.13811901211738586,-0.007317039184272289,-5.0902628572657704e-05,9.205831527709961,4.857429027557373,4.348402976989746,1691.0,1630.0,0.775568962097168,2551573928,20289,946
827477062,2,320,27533,8748,409755351,409756,403571,532,-1090,5013,-950,290,31,211,29.15625,0.07046827673912048,0.30494314432144165,0.9149773716926575,-0.5314438343048096,-7.077142715454102,4.267116069793701,2.5605828762054443,0.12032270431518555,2.5222034454345703,1500,1500,1397,1500,2000,1000,1000,1000,1433,1552,1487,1693,1631,1,1,1,1,1,1,1,0,1,1,0,0,stabilized_mix,-0.11322659254074097,-0.015726923942565918,-0.2600664794445038,-0.02264864556491375,0.031012259423732758,-0.5237869620323181,0.0,0.0,0.02264864556491375,-0.031012259423732758,0.0,0.0,0.0,0.0,0.0,0.0,0.0,0.0,0.0,0.0,0.0,0.3500000238418579,0.0,-0.0,0.0,0.0,0.0,2.127779960632324,-0.42922282218933105,0.8060908913612366,9.21237564086914,-0.046558309346437454,-0.08726094663143158,0.0,0.0,0.06670641899108887,0.005009184591472149,0.020148109644651413,-0.08225176483392715,-0.1391800194978714,-0.011171283200383186,-5.262292688712478e-05,9.245502471923828,4.885866165161133,4.3596367835998535,1693.0,1631.0,1.258002519607544,601096528,20289,946
827477062,2,320,27534,8748,409759382,409760,403575,540,-4066,9374,425,155,211,-248,29.21875,-0.06229626014828682,-0.22238928079605103,1.0920121669769287,1.6203670501708984,-8.317140579223633,3.0445504188537598,2.3852250576019287,0.0547635555267334,2.529412269592285,1500,1500,1404,1500,2000,1000,1000,1000,1439,1552,1487,1697,1638,1,1,1,1,1,1,1,0,1,1,0,0,stabilized_mix,-0.17746949195861816,0.45690834522247314,-0.3071325123310089,-0.023042570799589157,0.031603120267391205,-0.5242606401443481,0.0,0.0,0.023042570799589157,-0.031603120267391205,0.0,0.0,0.0,0.0,0.0,0.0,0.0,0.0,0.0,0.0,0.0,0.3500000238418579,0.0,-0.0,0.0,0.0,0.0,2.006959915161133,-0.5253951549530029,0.6198975443840027,9.363053321838379,-0.056054871529340744,-0.06609565019607544,0.0,0.0,0.07713257521390915,-0.01502717100083828,0.021077703684568405,-0.08112282305955887,-0.13955746591091156,-0.007970614358782768,-5.163482273928821e-05,9.396034240722656,4.956191539764404,4.43984317779541,1697.0,1638.0,1.258002519607544,1400677772,20289,946
827477062,2,320,27535,8748,409763413,409764,403579,534,7764,6840,1239,377,-55,260,29.171875,0.048980873078107834,0.13175080716609955,0.9111839532852173,-2.2173774242401123,-8.723943710327148,2.7523000240325928,2.530278205871582,0.05227690935134888,2.5472841262817383,1500,1500,1405,1500,2000,1000,1000,1000,1440,1549,1486,1697,1638,1,1,1,1,1,1,1,0,1,1,0,0,stabilized_mix,-0.06919445097446442,-0.05802241712808609,-0.22713156044483185,-0.02342958375811577,0.0319402813911438,-0.5249118804931641,0.0,0.0,0.02342958375811577,-0.0319402813911438,0.0,0.0,0.0,0.0,0.0,0.0,0.0,0.0,0.0,0.0,0.0,0.3500000238418579,0.0,-0.0,0.0,0.0,0.0,1.9897000789642334,-0.5521420240402222,0.9118788838386536,9.374956130981445,-0.058827467262744904,-0.09693925082683563,0.0,0.0,0.08080251514911652,0.020537693053483963,0.021975047886371613,-0.07640156149864197,-0.140493243932724,-0.007205504924058914,-5.1694572903215885e-05,9.404655456542969,4.960800647735596,4.443854808807373,1697.0,1638.0,1.258002519607544,2351143964,20289,946
827477062,2,320,27536,8748,409767447,409768,403583,544,-11693,7602,-1008,128,259,-280,29.25,-0.03108069859445095,-0.01351580023765564,1.0715458393096924,3.678499221801758,-7.256958961486816,4.697272777557373,2.325279951095581,-0.022592544555664062,2.5573811531066895,1500,1500,1415,1500,2000,1000,1000,1000,1449,1551,1494,1705,1648,1,1,1,1,1,1,1,0,1,1,0,0,stabilized_mix,-0.15857358276844025,0.4277348816394806,-0.3378525972366333,-0.02379695512354374,0.03184739500284195,-0.5254864692687988,0.0,0.0,0.02379695512354374,-0.03184739500284195,0.0,0.0,0.0,0.0,0.0,0.0,0.0,0.0,0.0,0.0,0.0,0.3500000238418579,0.0,-0.0,0.0,0.0,0.0,1.8171000480651855,-0.5435178279876709,0.4492645859718323,9.595063209533691,-0.056585103273391724,-0.046786367893218994,0.0,0.0,0.06567319482564926,-0.03328925743699074,0.009088091552257538,-0.08007562160491943,-0.14102192223072052,-0.0122974319383502,-5.3661788115277886e-05,9.62630558013916,5.0814619064331055,4.544844150543213,1705.0,1648.0,1.703884482383728,554985623,20289,946
827477062,2,320,27544,8755,409799719,409800,403615,538,4635,5348,-1448,336,-98,232,29.203125,0.10267180949449539,0.21869336068630219,0.9062343239784241,-0.6535844802856445,-8.621307373046875,1.2941721677780151,2.326653480529785,-0.10448747873306274,2.632925510406494,1500,1500,1440,1500,2000,1000,1000,1000,1470,1546,1503,1721,1687,1,1,1,1,1,1,1,0,1,1,0,0,stabilized_mix,0.1820385605096817,-0.14290833473205566,-0.3032175600528717,-0.02723534032702446,0.031286004930734634,-0.5312408804893494,0.0,0.0,0.02723534032702446,-0.031286004930734634,0.0,0.0,0.0,0.0,0.0,0.0,0.0,0.0,0.0,0.0,0.0,0.34999990463256836,0.0,-0.0,0.0,0.0,0.0,1.3855998516082764,-0.7970549464225769,0.7933908700942993,10.102299690246582,-0.07873526960611343,-0.07837396115064621,0.0,0.0,0.0741027221083641,0.0056177545338869095,-0.004632547497749329,-0.07275620847940445,-0.144977405667305,-0.0033881349954754114,-5.192795651964843e-05,10.129205703735352,5.32424259185791,4.804963111877441,1721.0,1687.0,2.39406156539917,453812253,20289,946
827477062,2,320,27545,8755,409803750,409804,403619,542,-9480,6883,-1176,133,194,-325,29.234375,-0.021715685725212097,-0.09492179751396179,1.083321452140808,4.189563751220703,-7.894957065582275,2.065765857696533,2.1237690448760986,-0.15479403734207153,2.632812976837158,1500,1500,1440,1500,2000,1000,1000,1000,1470,1542,1504,1721,1687,1,1,1,1,1,1,1,0,1,1,0,0,stabilized_mix,0.08500939607620239,0.3701212406158447,-0.4208854138851166,-0.026546107605099678,0.031750503927469254,-0.5321117639541626,0.0,0.0,0.026546107605099678,-0.031750503927469254,0.0,0.0,0.0,0.0,0.0,0.0,0.0,0.0,0.0,0.0,0.0,0.34999990463256836,0.0,-0.0,0.0,0.0,0.0,1.3855998516082764,-0.7505581974983215,0.3022547662258148,10.115372657775879,-0.07406403869390488,-0.029871253296732903,0.0,0.0,0.06777182221412659,-0.03596401959657669,-0.00629221647977829,-0.06583527475595474,-0.14497151970863342,-0.005408162251114845,-5.263288039714098e-05,10.137534141540527,5.331931114196777,4.805602550506592,1721.0,1687.0,2.39406156539917,1952868455,20289,946
827477062,2,320,27546,8755,409807783,409808,403623,550,12750,9010,1465,405,-164,211,29.296875,0.06135087087750435,-0.019932955503463745,0.9662212133407593,-1.991206407546997,-9.624645233154297,-0.14241480827331543,2.2713677883148193,-0.13411051034927368,2.641862392425537,1500,1500,1440,1500,2000,1000,1000,1000,1470,1540,1480,1720,1688,1,1,1,1,1,1,1,0,1,1,0,0,stabilized_mix,0.1786559373140335,-0.10304858535528183,-0.3365332782268524,-0.025995632633566856,0.030500352382659912,-0.5331245064735413,0.0,0.0,0.025995632633566856,-0.030500352382659912,0.0,0.0,0.0,0.0,0.0,0.0,0.0,0.0,0.0,0.0,0.0,0.34999990463256836,0.0,-0.0,0.0,0.0,0.0,1.3855998516082764,-0.519856333732605,0.8165607452392578,10.102545738220215,-0.05141260474920273,-0.08061253279447556,0.0,0.0,0.08272469788789749,0.01711460016667843,0.03131209313869476,-0.06349793076515198,-0.1454453468322754,0.00037284111022017896,-5.077535752207041e-05,10.127910614013672,5.3178324699401855,4.8100786209106445,1720.0,1688.0,2.310722827911377,2143254811,20289,946
827477062,2,320,27547,8755,409811813,409812,403627,540,-14437,6722,-2583,145,208,-270,29.21875,0.008363686501979828,0.15988366305828094,1.0692815780639648,5.425721168518066,-6.94517183303833,3.879159927368164,2.1063005924224854,-0.20403099060058594,2.6476573944091797,1500,1500,1449,1500,2000,1000,1000,1000,1477,1554,1488,1728,1693,1,1,1,1,1,1,1,0,1,1,0,0,stabilized_mix,0.031211422756314278,0.26144173741340637,-0.4913315176963806,-0.025585463270545006,0.03123324364423752,-0.5343178510665894,0.0,0.0,0.025585463270545006,-0.03123324364423752,0.0,0.0,0.0,0.0,0.0,0.0,0.0,0.0,0.0,0.0,0.0,0.34999990463256836,0.0,-0.0,0.0,0.0,0.0,1.230259895324707,-0.41430771350860596,0.40447619557380676,10.29716968536377,-0.040213413536548615,-0.039253540337085724,0.0,0.0,0.05856611579656601,-0.04575314000248909,0.018352702260017395,-0.08500668406486511,-0.14574876427650452,-0.010155617259442806,-5.456653889268637e-05,10.336227416992188,5.440946578979492,4.8952813148498535,1728.0,1693.0,2.310722827911377,4210971512,20289,946
827477062,2,320,27548,8755,409815847,409816,403631,526,14025,12818,3149,359,-139,76,29.109375,-0.010165758430957794,-0.24429070949554443,1.055080771446228,-1.8094671964645386,-9.975170135498047,-1.2652256488800049,2.17832612991333,-0.19216349720954895,2.653043270111084,1500,1500,1449,1500,2000,1000,1000,1000,1477,1535,1462,1727,1694,1,1,1,1,1,1,1,0,1,1,0,0,stabilized_mix,0.10775086283683777,0.04270944744348526,-0.40820929408073425,-0.02600954659283161,0.029842674732208252,-0.5354903340339661,0.0,0.0,0.02600954659283161,-0.029842674732208252,0.0,0.0,0.0,0.0,0.0,0.0,0.0,0.0,0.0,0.0,0.0,0.34999990463256836,0.0,-0.0,0.0,0.0,0.0,1.230259895324707,-0.24862103164196014,0.7288975119590759,10.292586326599121,-0.024150654673576355,-0.0705728754401207,0.0,0.0,0.08415444940328598,0.015265374444425106,0.060003794729709625,-0.055307500064373016,-0.14603078365325928,0.0033123530447483063,-4.995148628950119e-05,10.326933860778809,5.413224220275879,4.9137091636657715,1727.0,1694.0,2.107802629470825,3476732029,20290,947
827477062,2,320,27549,8755,409819880,409820,403635,536,-12275,5070,-4215,180,224,-73,29.1875,0.06703350692987442,0.34353893995285034,1.0100997686386108,4.378091812133789,-6.491958141326904,5.974755764007568,2.131726026535034,-0.2452273964881897,2.667544364929199,1500,1500,1450,1500,2000,1000,1000,1000,1478,1561,1478,1730,1693,1,1,1,1,1,1,1,0,1,1,0,0,stabilized_mix,0.009835511445999146,0.061540067195892334,-0.5461902618408203,-0.025858180597424507,0.03050925023853779,-0.537059485912323,0.0,0.0,0.025858180597424507,-0.03050925023853779,0.0,0.0,0.0,0.0,0.0,0.0,0.0,0.0,0.0,0.0,0.0,0.34999990463256836,0.0,-0.0,0.0,0.0,0.0,1.212999939918518,-0.200534388422966,0.6017279624938965,10.312118530273438,-0.019444026052951813,-0.058249376714229584,0.0,0.0,0.0546649731695652,-0.036865346133708954,0.03522094711661339,-0.09511472284793854,-0.1467900425195694,-0.015641875565052032,-5.685118958353996e-05,10.36536979675293,5.466940879821777,4.8984293937683105,1730.0,1693.0,2.107802629470825,17146218,20290,947
827477062,2,320,27550,8755,409823914,409824,403639,540,8267,12835,3014,248,15,-128,29.21875,-0.039825182408094406,-0.3405957818031311,1.1347038745880127,0.1514432430267334,-9.007593154907227,0.12248146533966064,2.078200578689575,-0.23993760347366333,2.6736974716186523,1500,1500,1450,1500,2000,1000,1000,1000,1478,1542,1467,1728,1695,1,1,1,1,1,1,1,0,1,1,0,0,stabilized_mix,0.06663607060909271,0.2209358811378479,-0.5324503779411316,-0.025390500202775,0.030207742005586624,-0.5384954810142517,0.0,0.0,0.025390500202775,-0.030207742005586624,0.0,0.0,0.0,0.0,0.0,0.0,0.0,0.0,0.0,0.0,0.0,0.34999990463256836,0.0,-0.0,0.0,0.0,0.0,1.212999939918518,-0.24588145315647125,0.6614844799041748,10.313339233398438,-0.023836594074964523,-0.06396465003490448,0.0,0.0,0.07583867758512497,-0.0012750637251883745,0.052002083510160446,-0.06523971259593964,-0.14711222052574158,-0.0003206557303201407,-5.1601557061076164e-05,10.349316596984863,5.432666301727295,4.916650295257568,1728.0,1695.0,2.107802629470825,376778490,20290,947
827477062,2,320,27551,8755,409827945,409828,403643,530,-1886,5317,-3278,304,58,130,29.140625,0.12405265122652054,0.3128903806209564,0.9646033048629761,1.7467594146728516,-7.5367431640625,3.9717602729797363,2.156938314437866,-0.24891752004623413,2.6886301040649414,1500,1500,1450,1500,2000,1000,1000,1000,1478,1553,1462,1730,1694,1,1,1,1,1,1,1,0,1,1,0,0,stabilized_mix,0.08278769254684448,-0.10562410950660706,-0.576176106929779,-0.02438936196267605,0.029556848108768463,-0.5403753519058228,0.0,0.0,0.02438936196267605,-0.029556848108768463,0.0,0.0,0.0,0.0,0.0,0.0,0.0,0.0,0.0,0.0,0.0,0.3500000238418579,0.0,-0.0,-0.0,0.0,0.0,1.2130000591278076,-0.03167913109064102,0.7017556428909302,10.311304092407227,-0.0030722622759640217,-0.06782862544059753,0.0,0.0,0.06346750259399414,-0.014709597453474998,0.060395240783691406,-0.08253822475671768,-0.14789409935474396,-0.010398044250905514,-5.540228448808193e-05,10.365426063537598,5.459724426269531,4.905701637268066,1730.0,1694.0,1.827154278755188,4125416742,20290,947
827477062,2,320,27552,8755,409831978,409832,403647,538,-3961,9909,2202,108,258,-309,29.203125,-0.05747129023075104,-0.2035401165485382,1.149725079536438,3.284905433654785,-6.881231307983398,3.406649589538574,1.9961612224578857,-0.269745796918869,2.6949377059936523,1500,1500,1450,1500,2000,1000,1000,1000,1478,1558,1466,1730,1694,1,1,1,1,1,1,1,0,1,1,0,0,stabilized_mix,0.05391460657119751,0.32617896795272827,-0.6608686447143555,-0.02386358566582203,0.029681384563446045,-0.5421828031539917,0.0,0.0,0.02386358566582203,-0.029681384563446045,0.0,0.0,0.0,0.0,0.0,0.0,0.0,0.0,0.0,0.0,0.0,0.3500000238418579,0.0,-0.0,-0.0,0.0,0.0,1.2130000591278076,-0.04272721707820892,0.659140408039093,10.310659408569336,-0.004143961239606142,-0.0637490302324295,0.0,0.0,0.05795101076364517,-0.027664175257086754,0.05380704998970032,-0.09141320735216141,-0.1482243537902832,-0.008918588049709797,-5.500006955116987e-05,10.368896484375,5.45944881439209,4.90944766998291,1730.0,1694.0,1.827154278755188,2379602167,20290,947
827477062,2,320,27553,8755,409836012,409836,403651,544,8907,7646,-249,354,-70,207,29.25,0.12144207954406738,0.0851304680109024,0.970449686050415,-0.7510013580322266,-8.420503616333008,3.1278152465820312,2.1312530040740967,-0.22799566388130188,2.7160849571228027,1500,1500,1450,1500,2000,1000,1000,1000,1478,1537,1446,1730,1694,1,1,1,1,1,1,1,0,1,1,0,0,stabilized_mix,0.19098566472530365,-0.13224345445632935,-0.605991780757904,-0.023237096145749092,0.028586305677890778,-0.5442838072776794,0.0,0.0,0.023237096145749092,-0.028586305677890778,0.0,0.0,0.0,0.0,0.0,0.0,0.0,0.0,0.0,0.0,0.0,0.3500000238418579,0.0,-0.0,-0.0,0.0,0.0,1.2130000591278076,0.14798466861248016,0.6637228727340698,10.315079689025879,0.01434545498341322,-0.06402373313903809,0.0,0.0,0.07088376581668854,0.006321926135569811,0.08522921800613403,-0.05770180746912956,-0.14933162927627563,-0.008188601583242416,-5.5132084526121616e-05,10.369916915893555,5.46061897277832,4.909298419952393,1730.0,1694.0,1.3902828693389893,242283529,20290,947
827477062,2,320,27554,8755,409840045,409840,403655,552,-13635,6721,-1322,90,236,-304,29.3125,-0.002793099731206894,0.09207184612751007,1.1104034185409546,5.311872959136963,-5.5772552490234375,4.464532375335693,1.965006709098816,-0.2597200274467468,2.7255215644836426,1500,1500,1450,1500,2000,1000,1000,1000,1478,1576,1466,1731,1694,1,1,1,1,1,1,1,0,1,1,0,0,stabilized_mix,0.1111673042178154,0.2653961479663849,-0.7583853602409363,-0.022516312077641487,0.029120827093720436,-0.5464953780174255,0.0,0.0,0.022516312077641487,-0.029120827093720436,0.0,0.0,0.0,0.0,0.0,0.0,0.0,0.0,0.0,0.0,0.0,0.3500000238418579,0.0,-0.0,-0.0,0.0,0.0,1.2130000591278076,0.066771499812603,0.7668387293815613,10.30531120300293,0.006479238159954548,-0.0741693302989006,0.0,0.0,0.046993814408779144,-0.04475771635770798,0.05347305163741112,-0.11892704665660858,-0.14982572197914124,-0.011688118800520897,-5.652988329529762e-05,10.393476486206055,5.4793877601623535,4.914088726043701,1731.0,1694.0,1.3902828693389893,1413267801,20290,947
827477062,2,320,27555,8755,409843141,409844,403658,520,9032,8386,27,359,-86,195,29.0625,0.11934052407741547,0.07759599387645721,0.9799291491508484,-0.6106662750244141,-8.333959579467773,2.1185414791107178,2.0917444229125977,-0.20819249749183655,2.7372350692749023,1500,1500,1452,1500,2000,1000,1000,1000,1480,1537,1446,1731,1696,1,1,1,1,1,1,1,0,1,1,0,0,stabilized_mix,0.2493380308151245,-0.119499571621418,-0.6632940173149109,-0.02183512970805168,0.028768625110387802,-0.5482468008995056,0.0,0.0,0.02183512970805168,-0.028768625110387802,0.0,0.0,0.0,0.0,0.0,0.0,0.0,0.0,0.0,0.0,0.0,0.3500000238418579,0.0,-0.0,-0.0,0.0,0.0,1.1784800291061401,0.15033365786075592,0.655561089515686,10.356152534484863,0.014515342190861702,-0.06299286335706711,0.0,0.0,0.0698770061135292,0.005120198708027601,0.08439234644174576,-0.05787266418337822,-0.15043905377388,-0.005546329077333212,-5.459482781589031e-05,10.41057014465332,5.478259086608887,4.932310581207275,1731.0,1696.0,1.3902828693389893,3938846492,20290,947
827477062,2,320,27561,8760,409867269,409868,403682,540,-6830,10099,1209,-31,295,-302,29.21875,-0.059306927025318146,-0.10558503866195679,1.1515392065048218,4.502748966217041,-3.525336265563965,4.849875450134277,1.7946734428405762,-0.21250849962234497,2.827047348022461,1500,1500,1452,1500,2000,1000,1000,1000,1480,1577,1471,1733,1695,1,1,1,1,1,1,1,0,1,1,0,0,stabilized_mix,0.09223667532205582,0.35938209295272827,-0.834896981716156,-0.015420423820614815,0.027598032727837563,-0.5635049343109131,0.0,0.0,0.015420423820614815,-0.027598032727837563,0.0,0.0,0.0,0.0,0.0,0.0,0.0,0.0,0.0,0.0,0.0,0.3499999940395355,0.0,-0.0,-0.0,0.0,0.0,1.1784800291061401,0.17088599503040314,0.8666411638259888,10.342819213867188,0.016520684584975243,-0.08350782841444016,0.0,0.0,0.02959667332470417,-0.03780246153473854,0.04611735790967941,-0.121310293674469,-0.15514160692691803,-0.012696944177150726,-5.874352063983679e-05,10.430481910705566,5.50895881652832,4.921523571014404,1733.0,1695.0,0.25786784291267395,1238084700,20290,947
827477062,2,320,27562,8760,409871304,409872,403686,538,10370,9749,383,306,-91,89,29.203125,0.07089152932167053,-0.04613947868347168,0.9995285868644714,0.8217846155166626,-7.213573932647705,1.5723562240600586,1.867604374885559,-0.19466853141784668,2.8444104194641113,1500,1500,1452,1500,2000,1000,1000,1000,1480,1544,1437,1732,1696,1,1,1,1,1,1,1,0,1,1,0,0,stabilized_mix,0.14605292677879333,0.040646493434906006,-0.7225952744483948,-0.014945262111723423,0.027789482846856117,-0.5661093592643738,0.0,0.0,0.014945262111723423,-0.027789482846856117,0.0,0.0,0.0,0.0,0.0,0.0,0.0,0.0,0.0,0.0,0.0,0.3499999940395355,0.0,-0.0,-0.0,0.0,0.0,1.1784800291061401,0.404972106218338,0.6518754363059998,10.353673934936523,0.03909393027424812,-0.06256704032421112,0.0,0.0,0.060497477650642395,-0.006891992874443531,0.09959140419960022,-0.06945903599262238,-0.15605072677135468,-0.0041164192371070385,-5.6058517657220364e-05,10.430384635925293,5.495484828948975,4.934899806976318,1732.0,1696.0,0.25786784291267395,21812330,20290,947
827477062,2,320,27563,8760,409875342,409876,403690,536,-11532,5332,-2411,25,313,-223,29.1875,0.004919745028018951,0.17109334468841553,1.0656040906906128,5.667547225952148,-2.2276558876037598,7.065042018890381,1.747586965560913,-0.22790399193763733,2.860625743865967,1500,1500,1452,1500,2000,1000,1000,1000,1480,1590,1481,1734,1695,1,1,1,1,1,1,1,0,1,1,0,0,stabilized_mix,0.028595974668860435,0.26014244556427,-0.8291835188865662,-0.014372131787240505,0.027750814333558083,-0.5687130689620972,0.0,0.0,0.014372131787240505,-0.027750814333558083,0.0,0.0,0.0,0.0,0.0,0.0,0.0,0.0,0.0,0.0,0.0,0.3499999940395355,0.0,-0.0,-0.0,0.0,0.0,1.1784800291061401,0.10781946778297424,0.9735691547393799,10.33829402923584,0.010428757406771183,-0.0938546359539032,0.0,0.0,0.018710291013121605,-0.04760225862264633,0.029139049351215363,-0.14145690202713013,-0.15689978003501892,-0.018496237695217133,-6.138859316706657e-05,10.447033882141113,5.530460357666016,4.916574001312256,1734.0,1695.0,0.10214680433273315,3362556068,20290,947
827477062,2,320,27564,8760,409879374,409880,403694,544,9026,11446,3471,116,-19,-70,29.25,-0.00583251565694809,-0.2472902536392212,1.0754716396331787,1.6296004056930542,-5.553979873657227,1.2223031520843506,1.7356233596801758,-0.19925686717033386,2.874361515045166,1500,1500,1452,1500,2000,1000,1000,1000,1480,1550,1449,1731,1695,1,1,1,1,1,1,1,0,1,1,0,0,stabilized_mix,0.10660737007856369,0.24164657294750214,-0.7185391783714294,-0.013929696753621101,0.027962520718574524,-0.5711102485656738,0.0,0.0,0.013929696753621101,-0.027962520718574524,0.0,0.0,0.0,0.0,0.0,0.0,0.0,0.0,0.0,0.0,0.0,0.3499999940395355,0.0,-0.0,-0.0,0.0,0.0,1.1784800291061401,0.34109583497047424,0.6744921803474426,10.35131549835205,0.03294001519680023,-0.06486296653747559,0.0,0.0,0.04658971354365349,-0.01366994809359312,0.07952973246574402,-0.07853291183710098,-0.15761896967887878,-0.003199982224032283,-5.628657527267933e-05,10.416242599487305,5.489553928375244,4.926688194274902,1731.0,1695.0,0.10214680433273315,3979544942,20290,947
827477062,2,320,27565,8760,409883404,409884,403698,540,-3725,4456,-3018,204,28,-51,29.21875,0.0775270164012909,0.23129643499851227,0.9722903370857239,4.272861003875732,-3.4966633319854736,3.6117050647735596,1.7293846607208252,-0.20900529623031616,2.8893556594848633,1500,1500,1452,1500,2000,1000,1000,1000,1480,1576,1469,1733,1695,1,1,1,1,1,1,1,0,1,1,0,0,stabilized_mix,0.05926327407360077,0.10453484952449799,-0.7503324151039124,-0.013699879869818687,0.028771240264177322,-0.5736538171768188,0.0,0.0,0.013699879869818687,-0.028771240264177322,0.0,0.0,0.0,0.0,0.0,0.0,0.0,0.0,0.0,0.0,0.0,0.3499999940395355,0.0,-0.0,-0.0,0.0,0.0,1.1784800291061401,0.19593630731105804,0.8648389577865601,10.342894554138184,0.018941784277558327,-0.0833258256316185,0.0,0.0,0.029355740174651146,-0.0358721949160099,0.04829752445220947,-0.1191980242729187,-0.15840406715869904,-0.009455421939492226,-5.8750854805111885e-05,10.428970336914062,5.508239269256592,4.920731067657471,1733.0,1695.0,0.10214680433273315,1840208991,20291,948
827477062,2,320,27566,8760,409887438,409888,403702,558,-999,11467,991,-14,209,-232,29.359375,-0.023249691352248192,-0.1781192421913147,1.122674584388733,3.8747193813323975,-3.0642056465148926,2.441009521484375,1.6119564771652222,-0.20203897356987,2.894129753112793,1500,1500,1452,1500,2000,1000,1000,1000,1480,1571,1472,1732,1695,1,1,1,1,1,1,1,0,1,1,0,0,stabilized_mix,0.058794595301151276,0.37016743421554565,-0.7405682802200317,-0.012862754054367542,0.028401458635926247,-0.5759348273277283,0.0,0.0,0.012862754054367542,-0.028401458635926247,0.0,0.0,0.0,0.0,0.0,0.0,0.0,0.0,0.0,0.0,0.0,0.34987810254096985,0.0,-0.0,-0.0,0.0,0.0,1.1783580780029297,0.1835368275642395,0.8229267597198486,10.344446182250977,0.017740687355399132,-0.07931067794561386,0.0,0.0,0.025721244513988495,-0.032524775713682175,0.043461933732032776,-0.11183544993400574,-0.15865403413772583,-0.006390548311173916,-5.7765631936490536e-05,10.419313430786133,5.498485088348389,4.920828819274902,1732.0,1695.0,0.0,2489784878,20291,948
827477062,2,320,27567,8760,409891471,409892,403706,548,6964,9822,-574,288,-60,5,29.28125,0.10845296084880829,0.03647339344024658,0.9966164231300354,2.5816097259521484,-5.381518840789795,2.085960626602173,1.6743885278701782,-0.16276967525482178,2.9099488258361816,1500,1500,1452,1500,2000,1000,1000,1000,1480,1559,1448,1732,1695,1,1,1,1,1,1,1,0,1,1,0,0,stabilized_mix,0.14603042602539062,0.06616037338972092,-0.6858059763908386,-0.012490234337747097,0.028829306364059448,-0.5783346891403198,0.0,0.0,0.012490234337747097,-0.028829306364059448,0.0,0.0,0.0,0.0,0.0,0.0,0.0,0.0,0.0,0.0,0.0,0.34987810254096985,0.0,-0.0,-0.0,0.0,0.0,1.1783580780029297,0.3778383135795593,0.7407428026199341,10.34841537475586,0.03649549558758736,-0.07122116535902023,0.0,0.0,0.04515567049384117,-0.021661974489688873,0.08165116608142853,-0.0928831398487091,-0.15948231518268585,-0.005461032502353191,-5.773012526333332e-05,10.427957534790039,5.502629280090332,4.925328254699707,1732.0,1695.0,0.0,153903834,20291,948
827477062,2,320,27568,8760,409895504,409896,403710,532,-9545,9160,-450,-24,230,-224,29.15625,-0.004097052849829197,0.0869191363453865,1.1172289848327637,5.198563098907471,-1.203905463218689,4.3146843910217285,1.5567444562911987,-0.17731106281280518,2.918625831604004,1500,1500,1452,1500,2000,1000,1000,1000,1480,1585,1490,1736,1697,1,1,1,1,1,1,1,0,1,1,0,0,stabilized_mix,0.06909122318029404,0.2783501446247101,-0.7687074542045593,-0.01164011936634779,0.028655001893639565,-0.5806449055671692,0.0,0.0,0.01164011936634779,-0.028655001893639565,0.0,0.0,0.0,0.0,0.0,0.0,0.0,0.0,0.0,0.0,0.0,0.28165343403816223,0.0,-0.0,-0.0,0.0,0.0,1.110133409500122,0.05649179965257645,0.9394567012786865,10.421464920043945,0.0054206629283726215,-0.08989263325929642,0.0,0.0,0.010031016543507576,-0.04331475496292114,0.01545167900621891,-0.13320738077163696,-0.15993665158748627,-0.011295817792415619,-5.9931306168437004e-05,10.515869140625,5.557591438293457,4.958278179168701,1736.0,1697.0,0.0,89730114,20291,948
827477062,2,320,27569,8760,409899535,409900,403714,532,7392,9821,2825,111,-93,-55,29.15625,0.010798364877700806,-0.1511201411485672,1.0499773025512695,2.277890682220459,-4.750348091125488,-0.774264931678772,1.57949960231781,-0.1469607651233673,2.923245429992676,1500,1500,1452,1500,2000,1000,1000,1000,1480,1555,1454,1734,1698,1,1,1,1,1,1,1,0,1,1,0,0,stabilized_mix,0.12848681211471558,0.14394114911556244,-0.6834566593170166,-0.01113169826567173,0.028729775920510292,-0.5828956365585327,0.0,0.0,0.01113169826567173,-0.028729775920510292,0.0,0.0,0.0,0.0,0.0,0.0,0.0,0.0,0.0,0.0,0.0,0.28165343403816223,0.0,-0.0,-0.0,0.0,0.0,1.110133409500122,0.34923863410949707,0.6992132663726807,10.431154251098633,0.033467840403318405,-0.0667533352971077,0.0,0.0,0.039543431252241135,-0.018961898982524872,0.07301127165555954,-0.08571523427963257,-0.1601785272359848,0.002027020789682865,-5.535304080694914e-05,10.49755859375,5.5255446434021,4.9720139503479,1734.0,1698.0,0.0,2620120247,20291,948
827477062,2,320,27570,8760,409903570,409904,403718,532,-5646,3082,-2969,66,-5,-80,29.15625,0.0762450248003006,0.21571016311645508,0.9952494502067566,4.015313625335693,-1.4894596338272095,2.416557788848877,1.5682927370071411,-0.13688534498214722,2.931914806365967,1500,1500,1452,1500,2000,1000,1000,1000,1480,1573,1487,1734,1697,1,1,1,1,1,1,1,0,1,1,0,0,stabilized_mix,0.11385102570056915,0.06237650662660599,-0.7377273440361023,-0.010692515410482883,0.02920611761510372,-0.5852646827697754,0.0,0.0,0.010692515410482883,-0.02920611761510372,0.0,0.0,0.0,0.0,0.0,0.0,0.0,0.0,0.0,0.0,0.0,0.28165343403816223,0.0,-0.0,-0.0,0.0,0.0,1.110133409500122,0.08804863691329956,0.842742919921875,10.424755096435547,0.00844590924680233,-0.08064767718315125,0.0,0.0,0.012406354770064354,-0.03344528749585152,0.020852264016866684,-0.11409296095371246,-0.16063246130943298,-0.006326533854007721,-5.8435602113604546e-05,10.495257377624512,5.539806365966797,4.955450534820557,1734.0,1697.0,0.0,477507030,20291,948
827477062,2,320,27571,8760,409907603,409908,403722,550,318,9127,-819,-55,103,-165,29.296875,0.0028943102806806564,-0.134334996342659,1.067259430885315,3.4360711574554443,-1.94420325756073,0.48684775829315186,1.4864486455917358,-0.12484616041183472,2.931739330291748,1500,1500,1452,1500,2000,1000,1000,1000,1480,1565,1482,1735,1699,1,1,1,1,1,1,1,0,1,1,0,0,stabilized_mix,0.10964537411928177,0.22218602895736694,-0.6992331743240356,-0.009948748163878918,0.02858687937259674,-0.5874595642089844,0.0,0.0,0.009948748163878918,-0.02858687937259674,0.0,0.0,0.0,0.0,0.0,0.0,0.0,0.0,0.0,0.0,0.0,0.2359074056148529,0.0,-0.0,-0.0,0.0,0.0,1.0643874406814575,0.12890736758708954,0.7765589356422424,10.482101440429688,0.012297235429286957,-0.07391946762800217,0.0,0.0,0.016105515882372856,-0.028463946655392647,0.028402751311659813,-0.10238341242074966,-0.16062326729297638,-0.0012745645362883806,-5.6664226576685905e-05,10.541533470153809,5.5540876388549805,4.98744535446167,1735.0,1699.0,0.0,448824579,20291,948
827477062,2,320,27572,8760,409911636,409912,403726,530,5367,8588,-1972,250,-115,-53,29.140625,0.09820865839719772,0.05173654854297638,0.9889846444129944,2.9530577659606934,-3.7060799598693848,0.04476439952850342,1.533476710319519,-0.09962278604507446,2.939676284790039,1500,1500,1452,1500,2000,1000,1000,1000,1480,1561,1463,1735,1700,1,1,1,1,1,1,1,0,1,1,0,0,stabilized_mix,0.13420024514198303,0.0048622917383909225,-0.6809044480323792,-0.00952998362481594,0.028685739263892174,-0.5897850394248962,0.0,0.0,0.00952998362481594,-0.028685739263892174,0.0,0.0,0.0,0.0,0.0,0.0,0.0,0.0,0.0,0.0,0.0,0.2359074056148529,0.0,-0.0,-0.0,0.0,0.0,1.0643874406814575,0.28786686062812805,0.7498733997344971,10.483516693115234,0.027452100068330765,-0.07128690928220749,0.0,0.0,0.03069651685655117,-0.02445942535996437,0.058148615062236786,-0.09574633836746216,-0.1610388457775116,-0.00011719292524503544,-5.640462040901184e-05,10.54958438873291,5.5568156242370605,4.992769241333008,1735.0,1700.0,0.0,3216848037,20291,948
827477062,2,320,27580,8767,409943902,409944,403758,538,-1750,8370,-591,-56,-72,-43,29.203125,0.061490248888731,0.13395488262176514,1.04604172706604,3.648419141769409,1.0528799295425415,-0.6177364587783813,1.1962482929229736,-0.0030300021171569824,2.9184703826904297,1500,1500,1452,1500,2000,1000,1000,1000,1480,1557,1510,1737,1702,1,1,1,1,1,1,1,0,1,1,0,0,stabilized_mix,0.08513505756855011,0.12996812164783478,-0.5580490231513977,-0.007606448605656624,0.02961515635251999,-0.6054865121841431,0.0,0.0,0.007606448605656624,-0.02961515635251999,0.0,0.0,0.0,0.0,0.0,0.0,0.0,0.0,0.0,0.0,0.0,0.16837024688720703,0.0,-0.0,-0.0,0.0,0.0,0.9968502521514893,-0.07168257236480713,0.6284334659576416,10.566020965576172,-0.006784149911254644,-0.059399787336587906,0.0,0.0,-0.00865264143794775,-0.02998296171426773,-0.015436790883541107,-0.08938275277614594,-0.15992851555347443,0.0016172303585335612,-5.540892016142607e-05,10.609633445739746,5.58186149597168,5.027772426605225,1737.0,1702.0,0.0,3601207169,20291,948
827477062,2,320,27581,8767,409947936,409948,403762,540,-2754,7914,-417,-50,-19,-222,29.21875,-0.020027346909046173,-0.09472599625587463,1.0278021097183228,5.456870079040527,-1.1746846437454224,-2.3060672283172607,1.0799332857131958,-0.00948721170425415,2.906898021697998,1500,1500,1452,1500,2000,1000,1000,1000,1480,1568,1490,1737,1703,1,1,1,1,1,1,1,0,1,1,0,0,stabilized_mix,0.026849938556551933,0.33492469787597656,-0.49810129404067993,-0.007077015936374664,0.029314734041690826,-0.606910765171051,0.0,0.0,0.007077015936374664,-0.029314734041690826,0.0,0.0,0.0,0.0,0.0,0.0,0.0,0.0,0.0,0.0,0.0,0.1584233045578003,0.0,-0.0,-0.0,0.0,0.0,0.9869033098220825,0.05990753322839737,0.6607868075370789,10.576740264892578,0.005664022173732519,-0.06238708272576332,0.0,0.0,0.009643856436014175,-0.04479948803782463,0.015307879075407982,-0.10718657076358795,-0.1593225747346878,0.006037270184606314,-5.364988464862108e-05,10.639037132263184,5.587768077850342,5.051269054412842,1737.0,1703.0,0.0,2961932963,20291,948
827477062,2,320,27582,8767,409951969,409952,403766,538,6440,6139,-366,79,-209,-95,29.203125,0.06985095888376236,-0.02956421673297882,0.9759775996208191,3.3257572650909424,-0.19757485389709473,-2.906918525695801,1.1101799011230469,0.04252970218658447,2.9016900062561035,1500,1500,1452,1500,2000,1000,1000,1000,1480,1550,1498,1736,1703,1,1,1,1,1,1,1,0,1,1,0,0,stabilized_mix,0.11092017590999603,0.14067061245441437,-0.4604690968990326,-0.006763813551515341,0.029754722490906715,-0.6082465052604675,0.0,0.0,0.006763813551515341,-0.029754722490906715,0.0,0.0,0.0,0.0,0.0,0.0,0.0,0.0,0.0,0.0,0.0,0.1584233045578003,0.0,-0.0,-0.0,0.0,0.0,0.9869033098220825,0.020009858533740044,0.5493334531784058,10.579976081848145,0.0018912930972874165,-0.05187509208917618,0.0,0.0,0.001621542265638709,-0.027295254170894623,0.0035128353629261255,-0.0791703462600708,-0.1590498834848404,0.007610294967889786,-5.300389602780342e-05,10.613286018371582,5.571662425994873,5.041623592376709,1736.0,1703.0,0.0,2481205896,20291,948
827477062,2,320,27583,8767,409956002,409956,403770,528,-7964,8235,-3597,-123,41,-163,29.125,0.0510261133313179,0.1174912303686142,1.0064353942871094,5.741604328155518,1.1294766664505005,-0.7642737627029419,1.014700174331665,0.027818024158477783,2.8920845985412598,1500,1500,1452,1500,2000,1000,1000,1000,1480,1566,1509,1738,1703,1,1,1,1,1,1,1,0,1,1,0,0,stabilized_mix,0.029642855748534203,0.2601388394832611,-0.4324536919593811,-0.0063651083037257195,0.029815128073096275,-0.6094187498092651,0.0,0.0,0.0063651083037257195,-0.029815128073096275,0.0,0.0,0.0,0.0,0.0,0.0,0.0,0.0,0.0,0.0,0.0,0.15160781145095825,0.0,-0.0,-0.0,0.0,0.0,0.9800878167152405,-0.046786077320575714,0.6072099208831787,10.585600852966309,-0.004419755656272173,-0.05729373171925545,0.0,0.0,-0.009264949709177017,-0.04709763079881668,-0.013684704899787903,-0.10439136624336243,-0.15854695439338684,0.002000864129513502,-5.4791104048490524e-05,10.644538879394531,5.596224784851074,5.048314094543457,1738.0,1703.0,0.0,1268039997,20291,948
827477062,2,320,27584,8767,409960036,409960,403774,544,5560,10271,2675,96,-150,-234,29.25,-0.012677829712629318,-0.18953795731067657,1.0153474807739258,4.767963409423828,-1.3244106769561768,-4.248938083648682,0.9697163701057434,0.05426156520843506,2.8794994354248047,1500,1500,1452,1500,2000,1000,1000,1000,1480,1558,1489,1736,1704,1,1,1,1,1,1,1,0,1,1,0,0,stabilized_mix,0.05144883692264557,0.27934718132019043,-0.39404937624931335,-0.006109725218266249,0.03022226318717003,-0.6104769110679626,0.0,0.0,0.006109725218266249,-0.03022226318717003,0.0,0.0,0.0,0.0,0.0,0.0,0.0,0.0,0.0,0.0,0.0,0.15160781145095825,0.0,-0.0,-0.0,0.0,0.0,0.9800878167152405,0.07553127408027649,0.5453292727470398,10.587486267089844,0.007133892737329006,-0.05145316570997238,0.0,0.0,0.010862032882869244,-0.03910401463508606,0.01799592562019825,-0.09055718034505844,-0.1578879952430725,0.011123694479465485,-5.1367562264204025e-05,10.632769584655762,5.573222637176514,5.059546947479248,1736.0,1704.0,0.0,2613151126,20292,949
827477062,2,320,27585,8767,409963131,409964,403777,544,-8241,8039,-2673,-142,40,-137,29.25,0.05396972596645355,0.16927583515644073,0.9955881237983704,5.762828350067139,1.8687857389450073,-0.6353424787521362,0.9461362361907959,0.050153911113739014,2.8735408782958984,1500,1500,1452,1500,2000,1000,1000,1000,1480,1565,1514,1738,1703,1,1,1,1,1,1,1,0,1,1,0,0,stabilized_mix,0.012469956651329994,0.22096331417560577,-0.3793879747390747,-0.006094222888350487,0.030926669016480446,-0.6112152338027954,0.0,0.0,0.006094222888350487,-0.030926669016480446,0.0,0.0,0.0,0.0,0.0,0.0,0.0,0.0,0.0,0.0,0.0,0.15160781145095825,0.0,-0.0,-0.0,0.0,0.0,0.9800878167152405,-0.07511492818593979,0.5860204696655273,10.585976600646973,-0.007095582317560911,-0.05528786778450012,0.0,0.0,-0.01532885991036892,-0.047270048409700394,-0.022424442693591118,-0.10255791246891022,-0.15757599472999573,0.0016633227933198214,-5.456944927573204e-05,10.644570350646973,5.595132350921631,5.049437999725342,1738.0,1703.0,0.0,442845340,20292,949
827477062,2,320,27586,8767,409967149,409968,403781,548,3836,10135,2679,71,-99,-270,29.28125,-0.035863809287548065,-0.20344337821006775,1.018727421760559,5.32431173324585,-1.0706850290298462,-3.3753676414489746,0.8897820711135864,0.06255614757537842,2.8628463745117188,1500,1500,1452,1500,2000,1000,1000,1000,1480,1558,1491,1737,1704,1,1,1,1,1,1,1,0,1,1,0,0,stabilized_mix,-0.0007298663258552551,0.30523544549942017,-0.34199658036231995,-0.005944263655692339,0.030493002384901047,-0.6120370626449585,0.0,0.0,0.005944263655692339,-0.030493002384901047,0.0,0.0,0.0,0.0,0.0,0.0,0.0,0.0,0.0,0.0,0.0,0.14717772603034973,0.0,-0.0,-0.0,0.0,0.0,0.9756577014923096,0.05945945158600807,0.5047799944877625,10.593193054199219,0.0056129274889826775,-0.047610413283109665,0.0,0.0,0.008776393719017506,-0.04364332929253578,0.014389321208000183,-0.09125374257564545,-0.15701603889465332,0.008836692199110985,-5.1862793043255806e-05,10.638554573059082,5.578591346740723,5.059963703155518,1737.0,1704.0,0.0,3261758058,20292,949
827477062,2,320,27587,8767,409971180,409972,403785,546,1021,8388,235,-99,-196,17,29.265625,0.05099523067474365,0.15740326046943665,0.9961797595024109,3.525564432144165,2.5182688236236572,-2.6589653491973877,0.9231546521186829,0.07808923721313477,2.8552374839782715,1500,1500,1452,1500,2000,1000,1000,1000,1480,1545,1518,1737,1703,1,1,1,1,1,1,1,0,1,1,0,0,stabilized_mix,0.012471538037061691,0.05590248107910156,-0.3167712092399597,-0.0060019162483513355,0.03104359656572342,-0.6127561330795288,0.0,0.0,0.0060019162483513355,-0.03104359656572342,0.0,0.0,0.0,0.0,0.0,0.0,0.0,0.0,0.0,0.0,0.0,0.14717772603034973,0.0,-0.0,-0.0,0.0,0.0,0.9756577014923096,-0.08032829314470291,0.4426727294921875,10.595113754272461,-0.007581490557640791,-0.041739948093891144,0.0,0.0,-0.020638482645154,-0.02889377810060978,-0.028219973668456078,-0.07063372433185577,-0.1566176414489746,0.006961155217140913,-5.2379793487489223e-05,10.625829696655273,5.5748138427734375,5.051015853881836,1737.0,1703.0,0.0,1807542616,20292,949
827477062,2,320,27588,8767,409975216,409976,403789,548,-6286,7820,-766,-116,24,-303,29.28125,-0.032582249492406845,-0.04637332260608673,1.0157002210617065,7.042323112487793,0.7230736017227173,-2.028855800628662,0.7899051904678345,0.05897170305252075,2.8401293754577637,1500,1500,1452,1500,2000,1000,1000,1000,1480,1566,1504,1738,1704,1,1,1,1,1,1,1,0,1,1,0,0,stabilized_mix,-0.0779356062412262,0.32956406474113464,-0.2923731207847595,-0.005906285718083382,0.030769042670726776,-0.6133059859275818,0.0,0.0,0.005906285718083382,-0.030769042670726776,0.0,0.0,0.0,0.0,0.0,0.0,0.0,0.0,0.0,0.0,0.0,0.14359816908836365,0.0,-0.0,-0.0,0.0,0.0,0.9720782041549683,-0.007678677327930927,0.4955834150314331,10.596579551696777,-0.0007246372406370938,-0.046733155846595764,0.0,0.0,-0.005925132893025875,-0.05770740285515785,-0.006649770308285952,-0.10444055497646332,-0.15582656860351562,0.005311532411724329,-5.268026143312454e-05,10.654871940612793,5.590837478637695,5.064034461975098,1738.0,1704.0,0.0,2109467986,20292,949
827477062,2,320,27589,8767,409979230,409980,403793,542,10481,7290,967,15,-299,-66,29.234375,0.03090823069214821,-0.105682872235775,0.9676547646522522,2.7394046783447266,1.4199410676956177,-4.873934745788574,0.8486867547035217,0.10869157314300537,2.8312978744506836,1500,1500,1452,1500,2000,1000,1000,1000,1480,1536,1509,1736,1704,1,1,1,1,1,1,1,0,1,1,0,0,stabilized_mix,0.013757919892668724,0.08257970958948135,-0.2243012636899948,-0.005960943177342415,0.03089364804327488,-0.6137012243270874,0.0,0.0,0.005960943177342415,-0.03089364804327488,0.0,0.0,0.0,0.0,0.0,0.0,0.0,0.0,0.0,0.0,0.0,0.14359816908836365,0.0,-0.0,-0.0,0.0,0.0,0.9720782041549683,-0.018565300852060318,0.3684912919998169,10.601119041442871,-0.001751256873831153,-0.0347425639629364,0.0,0.0,-0.01163054071366787,-0.022438084706664085,-0.013381797820329666,-0.057180650532245636,-0.15536415576934814,0.01275993138551712,-4.9911439418792725e-05,10.619424819946289,5.559269428253174,5.060154914855957,1736.0,1704.0,0.0,2865266762,20292,949
827477062,2,320,27590,8767,409983231,409984,403797,542,-9955,5803,-4909,-218,43,-146,29.234375,0.06826804578304291,0.20878951251506805,0.9555529356002808,6.376526832580566,3.2457170486450195,-0.37130749225616455,0.7666056156158447,0.0970388650894165,2.8212828636169434,1500,1500,1452,1500,2000,1000,1000,1000,1480,1561,1522,1738,1704,1,1,1,1,1,1,1,0,1,1,0,0,stabilized_mix,-0.05521799996495247,0.16007304191589355,-0.20819580554962158,-0.006150987930595875,0.03153818100690842,-0.6139755249023438,0.0,0.0,0.006150987930595875,-0.03153818100690842,0.0,0.0,0.0,0.0,0.0,0.0,0.0,0.0,0.0,0.0,0.0,0.14359816908836365,0.0,-0.0,-0.0,0.0,0.0,0.9720782041549683,-0.07914968580007553,0.46550554037094116,10.597271919250488,-0.007468734867870808,-0.04387326538562775,0.0,0.0,-0.026594871655106544,-0.052248209714889526,-0.03406360745429993,-0.09612147510051727,-0.15483978390693665,0.0009720808011479676,-5.3853727877140045e-05,10.652597427368164,5.595567226409912,5.057029724121094,1738.0,1704.0,0.0,3748771806,20292,949
827477062,2,320,27591,8767,409987263,409988,403801,534,6056,9336,2650,18,-152,-284,29.171875,-0.03587941825389862,-0.2634960114955902,0.9993995428085327,4.734633445739746,0.6802845597267151,-5.001422882080078,0.7232341766357422,0.1278969645500183,2.807089328765869,1500,1500,1452,1500,2000,1000,1000,1000,1480,1547,1503,1736,1704,1,1,1,1,1,1,1,0,1,1,0,0,stabilized_mix,-0.031177837401628494,0.2552047669887543,-0.16234911978244781,-0.0059881918132305145,0.030595624819397926,-0.6140543818473816,0.0,0.0,0.0059881918132305145,-0.030595624819397926,0.0,0.0,0.0,0.0,0.0,0.0,0.0,0.0,0.0,0.0,0.0,0.1405714452266693,0.0,-0.0,-0.0,0.0,0.0,0.9690514802932739,0.017164859920740128,0.3693968951702118,10.603487014770508,0.0016187925357371569,-0.03482294827699661,0.0,0.0,-0.005570872221142054,-0.038772065192461014,-0.003952079452574253,-0.07359501719474792,-0.1540966033935547,0.013093694113194942,-4.935101605951786e-05,10.63235092163086,5.562930583953857,5.069420337677002,1736.0,1704.0,0.0,2551829394,20292,949
827477062,2,320,27598,8773,410015496,410016,403829,536,-6014,8379,2049,-187,14,-413,29.1875,-0.08440229296684265,-0.15831458568572998,1.0246047973632812,7.185239315032959,2.8161888122558594,-3.872080087661743,0.46726226806640625,0.2169223427772522,2.7102556228637695,1500,1500,1452,1500,2000,1000,1000,1000,1480,1553,1513,1736,1705,1,1,1,1,1,1,1,0,1,1,0,0,stabilized_mix,-0.09464216232299805,0.35998138785362244,0.0061589740216732025,-0.006412137765437365,0.029833029955625534,-0.6112411618232727,0.0,0.0,0.006412137765437365,-0.029833029955625534,0.0,0.0,0.0,0.0,0.0,0.0,0.0,0.0,0.0,0.0,0.0,0.13779699802398682,0.0,-0.0,-0.0,0.0,0.0,0.966277003288269,0.024111006408929825,0.2624105215072632,10.606474876403809,0.0022732308134436607,-0.02473021298646927,0.0,0.0,-0.023055365309119225,-0.058823585510253906,-0.02078213542699814,-0.08355379849672318,-0.14902640879154205,0.010137082077562809,-4.8611313104629517e-05,10.645904541015625,5.566008567810059,5.079895496368408,1736.0,1705.0,0.0,1091895723,20292,949
827477062,2,320,27599,8773,410019530,410020,403833,536,11968,9232,1937,-55,-423,91,29.1875,0.05607498064637184,-0.03683874011039734,0.9392110109329224,1.1669423580169678,3.1631059646606445,-6.225815773010254,0.5918554663658142,0.2777729630470276,2.6978201866149902,1500,1500,1452,1500,2000,1000,1000,1000,1480,1519,1514,1734,1705,1,1,1,1,1,1,1,0,1,1,0,0,stabilized_mix,0.01714121177792549,-0.03243934363126755,0.10254068672657013,-0.006559933535754681,0.029754692688584328,-0.6103789806365967,0.0,0.0,0.006559933535754681,-0.029754692688584328,0.0,0.0,0.0,0.0,0.0,0.0,0.0,0.0,0.0,0.0,0.0,0.13779699802398682,0.0,-0.0,-0.0,0.0,0.0,0.966277003288269,0.036554187536239624,0.21004733443260193,10.610753059387207,0.0034449996892362833,-0.019788136705756187,0.0,0.0,-0.02588503807783127,-0.009549584239721298,-0.02244003862142563,-0.029337720945477486,-0.14837528765201569,0.01629914715886116,-4.6226661652326584e-05,10.61799430847168,5.540130138397217,5.077863693237305,1734.0,1705.0,0.0,516985588,20292,949
