"host_time_s","stage","timestamp_us","sequence","raw_temperature","raw_accel_x","raw_accel_y","raw_accel_z","raw_gyro_x","raw_gyro_y","raw_gyro_z","temperature_c","accel_x_g","accel_y_g","accel_z_g","gyro_x_dps","gyro_y_dps","gyro_z_dps","roll_deg","pitch_deg","yaw_deg","roll_acc_deg","pitch_acc_deg","roll_gyro_deg","pitch_gyro_deg","roll_residual_deg","pitch_residual_deg","accel_norm_g","accel_residual_deg","dt_ms","gyro_bias_ready","imu_data_ready_count","imu_poll_ready_count"
"0.0017491","baseline","1050483400","1038906","410","20","8110","-122","-9","-8","0","28.20313","0.01330968","-0.002708114","0.9931011","-0.007863287","-0.005633477","0.02373442","0.3392215","1.92777","36.30933","-0.156241","0.7678374","0.2833169","2.783863","-0.4395579","-2.014518","0.9927191","2.056787","1.008","1","1038907","0"
"0.3352948","baseline","1050505584","1038928","394","1","8095","-117","-12","-10","2","28.25","0.01502606","-0.002262566","0.992012","0.02039","-0.06017596","-0.009647734","0.3394392","1.927543","36.30996","-0.1306791","0.8677939","0.2835346","2.783636","-0.4142137","-1.915842","0.9921284","1.960108","1.008","1","1038930","0"
"0.3405156","baseline","1050510626","1038933","396","-29","8151","-124","-9","-8","2","28.09375","0.01472511","-0.0004706362","0.9938018","-0.01341713","-0.05711333","0.02845037","0.3395479","1.927576","36.31005","-0.02713364","0.8488861","0.2836432","2.783669","-0.3107769","-1.934783","0.993911","1.959583","1.008","1","1038934","0"
"0.3455249","baseline","1050515668","1038938","398","0","8168","-84","-10","-8","1","28.10938","0.01394512","-0.0001090254","0.9954285","-0.002871579","-0.03434911","0.05395339","0.3395053","1.927354","36.31025","-0.01196628","0.7733799","0.2836007","2.783446","-0.2955669","-2.010067","0.9955192","2.031681","1.008","1","1038939","0"
"0.3503028","baseline","1050520710","1038943","400","10","8115","-109","-21","-9","4","28.125","0.01389681","-0.0008297645","0.9933298","-0.07099447","0.1922087","0.02574098","0.3398297","1.928115","36.31055","-0.05478492","0.7904923","0.283925","2.784207","-0.3387099","-1.993715","0.9934759","2.022282","1.008","1","1038944","0"
"0.3552086","baseline","1050525752","1038948","398","10","8101","-119","-14","-7","0","28.10938","0.01445334","-0.002279002","0.992447","0.002058093","0.05418992","0.04916204","0.3399487","1.928612","36.3108","-0.1141038","0.8152472","0.2840329","2.784705","-0.3981366","-1.969458","0.9921404","2.009298","1.008","1","1038949","0"
"0.3602842","baseline","1050530794","1038953","398","-11","8173","-87","-11","-10","0","28.10938","0.01387922","-0.001470287","0.9941992","0.05629214","-0.06141435","-0.006328469","0.3398095","1.928548","36.31096","-0.04227704","0.7944196","0.2838864","2.784641","-0.3261635","-1.990221","0.9944794","2.01677","1.008","1","1038954","0"
"0.3655834","baseline","1050535836","1038958","400","-14","8161","-99","-9","-9","0","28.07813","0.01351292","0.0004799834","0.995362","0.01378491","-0.06957336","-0.02735506","0.3397726","1.928251","36.31097","0.02762917","0.777793","0.283868","2.784343","-0.2562388","-2.00655","0.9954538","2.022845","1.008","1","1038959","0"
"0.3708062","baseline","1050540877","1038964","400","19","8108","-104","-6","-14","-1","28.125","0.01361188","-0.001515583","0.9937041","0.04893582","-0.1260318","-0.05330236","0.3396755","1.927972","36.31093","-0.08738662","0.7847947","0.2837708","2.784065","-0.3711574","-1.99927","0.9937984","2.061982","1.008","1","1038965","0"
"0.3758689","baseline","1050546928","1038969","396","14","8101","-124","-17","-13","3","28.04688","0.01392527","-0.002214384","0.9921265","0.0009691389","0.01234203","-0.1058274","0.3395188","1.927675","36.3106","-0.1278815","0.8041359","0.2836141","2.783768","-0.4114956","-1.979632","0.9922267","2.021947","1.008","1","1038970","0"
"0.3819362","baseline","1050551970","1038974","402","-32","8147","-112","-10","-10","2","28.14063","0.01340926","-0.0005772764","0.9936493","0.0287066","-0.1252423","-0.02600297","0.3394008","1.927344","36.31044","-0.0332869","0.7731576","0.2834961","2.783437","-0.316783","-2.010279","0.99374","2.035086","1.008","1","1038975","0"
"0.3869466","baseline","1050559029","1038981","388","-7","8169","-96","-13","-8","3","28.07813","0.01389581","-0.0002194618","0.9950089","-0.02309286","-0.005186512","-0.04881985","0.3395465","1.927392","36.31023","-0.01263731","0.8001129","0.2836418","2.783485","-0.2962792","-1.983372","0.995106","2.005379","1.008","1","1038983","0"
"0.3954127","baseline","1050566087","1038988","396","47","8139","-133","-16","-9","5","28.09375","0.01380373","-0.00269415","0.9936667","-0.07454059","0.1304529","0.002845241","0.3398272","1.928175","36.31019","-0.1520084","0.8386973","0.2840022","2.784383","-0.4360106","-1.945686","0.9931935","1.99394","1.009","1","1038989","0"
"0.4007035","baseline","1050571129","1038993","398","36","8167","-112","-13","-11","1","28.10938","0.01443771","-0.002459174","0.9939647","-0.0005056616","0.01349748","-0.006856572","0.3401166","1.928542","36.31021","-0.1417555","0.8321816","0.2842119","2.784635","-0.4259674","-1.952453","0.9940726","1.99838","1.009","1","1038994","0"
"0.4060648","baseline","1050576171","1038998","386","0","8152","-140","-11","-11","3","27.98438","0.01552594","-0.0003213602","0.994755","-0.01411111","-0.0767141","-0.02932118","0.3400781","1.928331","36.31023","-0.01850967","0.8941883","0.2841735","2.784424","-0.3026831","-1.890235","0.9948763","1.914316","1.009","1","1038999","0"
"0.4110015","baseline","1050581213","1039003","398","4","8139","-146","-17","-5","3","28.10938","0.0143888","0.0004578565","0.9945727","-0.02289345","0.04893198","0.06715647","0.340145","1.92827","36.3103","0.02637639","0.8657972","0.2842403","2.784363","-0.2578639","-1.918566","0.9946864","1.935817","1.009","1","1039004","0"
"0.4158916","baseline","1050586255","1039008","398","49","8156","-104","-13","-7","4","28.10938","0.01476738","-0.001474847","0.9936927","-0.0530896","0.005676615","-0.00602011","0.3403233","1.928394","36.31039","-0.1117394","0.8559129","0.2844643","2.784486","-0.3962037","-1.928573","0.9937991","1.96885","1.009","1","1039009","0"
"0.4206414","baseline","1050591297","1039013","406","41","8132","-140","-11","-11","0","28.17188","0.01565485","-0.001922092","0.992099","0.01118218","-0.03730696","-0.05360021","0.3404391","1.928334","36.31033","-0.1110047","0.9040232","0.2845123","2.784418","-0.4281371","-1.885697","0.9928385","1.933689","1.009","1","1039014","0"
"0.4253581","baseline","1050596339","1039018","396","-10","8157","-149","-19","-9","1","28.09375","0.01473808","-0.000275985","0.9946704","0.02467725","0.1021394","0.0003159957","0.3403599","1.928647","36.31028","-0.0158975","0.8488924","0.2844552","2.784739","-0.3003527","-1.935847","0.9948742","1.941671","1.009","1","1039019","0"
"0.4304103","baseline","1050601381","1039023","384","7","8163","-87","-9","-5","2","28","0.01343049","0.0005685411","0.9956247","0.01875657","-0.1464176","0.004237756","0.3402683","1.928538","36.31015","0.03271816","0.7728453","0.2843637","2.784631","-0.2516455","-1.983691","0.9954866","2.005627","1.008","1","1039024","0"
"0.435629","baseline","1050606423","1039028","396","7","8159","-104","-17","-12","4","28.09375","0.01429582","-0.000202432","0.9943975","-0.009975672","0.0404323","-0.06802186","0.3402","1.928448","36.31017","-0.01166385","0.8236482","0.284329","2.784636","-0.3376378","-1.964616","0.9946914","1.993418","1.008","1","1039029","0"
"0.4409687","baseline","1050611465","1039033","410","13","8121","-129","-9","-10","2","28.20313","0.01491524","-0.002115109","0.9923085","0.005962097","-0.0128325","-0.01493966","0.3402432","1.928735","36.31013","-0.1339863","0.8716466","0.2843385","2.784827","-0.4183248","-1.913181","0.992949","1.958381","1.008","1","1039034","0"
"0.4460732","baseline","1050616507","1039038","388","-12","8164","-113","-13","-9","1","28.125","0.0149238","-0.0006028218","0.9950796","0.03179668","0.01130085","0.001065054","0.340167","1.928739","36.31019","-0.03470993","0.859234","0.2842623","2.784832","-0.3189722","-1.925598","0.9951918","1.951838","1.008","1","1039039","0"
"0.451214","baseline","1050621549","1039043","392","-15","8165","-94","-13","-8","2","28.0625","0.01418519","0.0002590562","0.9957278","8.431589E-05","-0.04201153","0.01563919","0.3401176","1.928884","36.31009","0.009200254","0.8081585","0.2842129","2.784977","-0.2750126","-1.976819","0.9958269","1.995857","1.008","1","1039044","0"
"0.4563372","baseline","1050626590","1039048","392","14","8125","-76","-17","-11","3","28.14063","0.01315656","-0.001238906","0.9939309","-0.03273369","0.02939372","-0.014396","0.3403504","1.928871","36.31015","-0.07141748","0.7583734","0.2844457","2.784964","-0.3558632","-2.02659","0.9940187","2.057597","1.009","1","1039049","0"
"0.4614153","baseline","1050631632","1039053","398","17","8101","-115","-12","-10","1","28.10938","0.01388347","-0.002309448","0.9928173","0.004194792","0.01511077","0.005356379","0.3403804","1.928938","36.31017","-0.1434952","0.8186197","0.2844757","2.785031","-0.4279709","-1.966411","0.9924346","2.012444","1.009","1","1039054","0"
"0.4661581","baseline","1050636673","1039058","404","-48","8157","-103","-9","-5","1","28.15625","0.01385795","-0.0009538066","0.9945185","0.003674214","-0.005633678","0.05425719","0.3404098","1.929169","36.31031","-0.009426505","0.8110306","0.2845053","2.785243","-0.2939318","-1.974213","0.9947325","1.995974","1.009","1","1039059","0"
"0.4710224","baseline","1050641715","1039063","410","-24","8156","-72","-9","-14","1","28.20313","0.01398744","9.454769E-05","0.9951911","-0.003916198","-0.03787776","-0.05354103","0.3404869","1.929179","36.31052","0.03020567","0.7586262","0.2845815","2.785272","-0.2543758","-2.026646","0.9956347","2.042547","1.009","1","1039064","0"
"0.4763505","baseline","1050646756","1039068","406","18","8120","-114","-14","-13","1","28.1875","0.01379823","-0.0007691692","0.9943206","0.01711858","-0.06178287","-0.04126206","0.3404539","1.928744","36.31057","-0.04432186","0.7950449","0.2845492","2.784837","-0.3288711","-1.989792","0.9944167","2.016786","1.008","1","1039069","0"
"0.4826679","baseline","1050652806","1039074","400","-7","8111","-117","-17","-10","4","28.01563","0.01378456","-0.001695946","0.992933","-0.0125889","0.1119139","0.004456354","0.3403881","1.928958","36.31074","-0.09786208","0.7953658","0.2844834","2.78505","-0.3823454","-1.989685","0.9930301","2.026088","1.008","1","1039075","0"
"0.487646","baseline","1050657848","1039079","380","-14","8159","-95","-14","-8","0","27.96875","0.01256586","-0.000917703","0.9946965","0.04048718","-0.003162749","0.008729432","0.3403886","1.929073","36.31069","-0.05286084","0.7372179","0.2844839","2.785166","-0.3373447","-2.047948","0.9947793","2.075547","1.008","1","1039080","0"
"0.4924437","baseline","1050663899","1039085","406","-14","8174","-87","-11","-5","4","28.17188","0.01287043","0.0003332102","0.9959145","-0.01566715","-0.07688841","-0.01026495","0.3403147","1.928854","36.31057","0.01916986","0.7404053","0.2844101","2.784947","-0.2652402","-2.044541","0.9961039","2.060635","1.008","1","1039086","0"
"0.4979918","baseline","1050668940","1039090","388","14","8126","-95","-17","-9","3","28.03125","0.01346803","-0.0007797675","0.9937543","-0.03506446","0.05414995","0.01758006","0.3405385","1.928712","36.31072","-0.04495818","0.7764634","0.2846338","2.784805","-0.329592","-2.008341","0.9938458","2.035206","1.008","1","1039091","0"
"0.503788","baseline","1050673982","1039095","392","10","8107","-117","-19","-9","2","28.0625","0.01426698","-0.002290485","0.9923428","0.01340842","0.06769734","-0.02696694","0.3404403","1.928837","36.31086","-0.1322476","0.8236867","0.2845356","2.78493","-0.4167832","-1.961243","0.992448","2.005039","1.008","1","1039096","0"
"0.5096836","baseline","1050680032","1039101","386","-14","8152","-116","-12","-8","4","28.125","0.01384441","-0.001036498","0.9948952","-0.03265876","-0.02763915","0.01270273","0.3404774","1.928934","36.3108","-0.05969165","0.7972442","0.2845728","2.785027","-0.3442644","-1.987783","0.994992","2.017374","1.008","1","1039102","0"
"0.5150458","baseline","1050685074","1039106","394","9","8157","-122","-12","-10","1","28.15625","0.01336322","-0.0009935675","0.9954774","-0.008878114","0.02495477","-0.07428629","0.3406482","1.929198","36.31054","-0.05718583","0.7690878","0.2847435","2.785291","-0.3419294","-2.016203","0.9955676","2.044991","1.009","1","1039108","0"
"0.5198305","baseline","1050690116","1039111","392","0","8139","-83","-13","-13","0","28.0625","0.01361436","-0.0005768477","0.9934024","0.02886509","-0.02416268","-0.06377572","0.3405566","1.929265","36.31038","-0.06704973","0.7630755","0.2846519","2.785358","-0.3517016","-2.022283","0.9938793","2.052638","1.008","1","1039112","0"
"0.5244042","baseline","1050694149","1039116","400","21","8107","-111","-15","-7","4","28.125","0.01414692","-0.002811288","0.992327","-0.02597148","-0.0002862215","0.02254703","0.3405757","1.929186","36.31041","-0.16232","0.8167677","0.284671","2.785279","-0.446991","-1.968511","0.9924318","2.015594","1.008","1","1039117","0"
"0.5288454","baseline","1050699191","1039120","400","-23","8163","-105","-17","-10","2","28.125","0.01389966","-0.001593494","0.9939945","-0.01520564","0.0255134","-0.0242928","0.3406776","1.929224","36.31045","-0.0315129","0.7975311","0.2847812","2.785359","-0.316294","-1.987828","0.9946175","2.012835","1.009","1","1039121","0"
"0.533474","baseline","1050704233","1039125","410","-11","8157","-97","-12","-10","2","28.20313","0.01407323","0.0004206505","0.995385","-0.016619","0.01692762","-0.01342662","0.3407246","1.929363","36.31058","0.03039396","0.7649123","0.2848279","2.785451","-0.254434","-2.020539","0.9957605","2.036496","1.009","1","1039126","0"
"0.5383029","baseline","1050709275","1039130","396","21","8102","-125","-14","-10","2","28.09375","0.01413284","-0.0009540103","0.9941033","-0.01976934","0.04547799","0.0324975","0.3408643","1.92955","36.31079","-0.05498498","0.8145","0.2849596","2.785642","-0.3399446","-1.971142","0.993898","2.013514","1.009","1","1039131","0"
"0.5430605","baseline","1050713309","1039134","398","53","8136","-120","-17","-10","0","28.10938","0.01369897","-0.002872194","0.9938973","0.01747171","0.0595028","-0.03362056","0.3408229","1.929829","36.31067","-0.1784639","0.804309","0.2849182","2.785922","-0.4633822","-1.981613","0.9935158","2.03507","1.008","1","1039135","0"
"0.5478329","baseline","1050718351","1039139","406","28","8158","-97","-18","-8","3","28.17188","0.01323102","-0.002766841","0.9935103","0.02377478","0.0414672","0.01074065","0.3406686","1.929863","36.31068","-0.1397789","0.7254006","0.2847559","2.78604","-0.4245348","-2.060639","0.994022","2.103916","1.007","1","1039140","0"
"0.5524829","baseline","1050722383","1039144","398","10","8156","-126","-9","-5","1","28.10938","0.01323797","-0.0008177844","0.9948771","0.02232029","-0.03054206","0.05130257","0.3406203","1.930129","36.31074","-0.04709686","0.7623404","0.2847157","2.786222","-0.3318125","-2.023881","0.9949655","2.050901","1.008","1","1039145","0"
"0.5570842","baseline","1050727424","1039148","412","-8","8168","-99","-15","-8","5","28.21875","0.01265536","0.0001688269","0.9959193","-0.0205489","-0.009099867","-0.02533977","0.3405487","1.930055","36.3107","-0.006308839","0.7642177","0.2846762","2.786217","-0.290985","-2.022","0.9957646","2.04283","1.009","1","1039149","0"
"0.5616871","baseline","1050732466","1039153","402","32","8157","-89","-9","-11","0","28.14063","0.01342463","-0.001364018","0.9942325","0.03603666","-0.009079531","-0.03429005","0.3405541","1.930453","36.31074","-0.07860582","0.7735889","0.2846099","2.786533","-0.406507","-2.016432","0.9945423","2.056999","1.009","1","1039154","0"
"0.5663964","baseline","1050736499","1039157","394","17","8092","-129","-17","-11","2","28.07813","0.01482247","-0.00257285","0.9921806","-0.01140166","0.08765368","-0.03408027","0.3404023","1.930503","36.31057","-0.1485749","0.8558916","0.2844976","2.786596","-0.4330725","-1.930704","0.9922946","1.978679","1.008","1","1039158","0"
"0.5709924","baseline","1050741541","1039162","382","-29","8157","-113","-14","-10","2","27.98438","0.01487704","-0.001397657","0.9942479","-0.0304386","0.06265705","-0.04292207","0.34053","1.93083","36.31048","-0.03094951","0.866272","0.2846117","2.786887","-0.3155612","-1.920615","0.9944221","1.946366","1.008","1","1039163","0"
"0.5757501","baseline","1050746582","1039167","396","-11","8167","-78","-19","-12","4","28.09375","0.01477437","0.0001419973","0.9950674","-0.02926213","0.02953836","-0.06309332","0.3404795","1.930557","36.31039","0.008176173","0.8506427","0.2845748","2.78665","-0.2763986","-1.936007","0.9955198","2.007555","1.008","1","1039168","0"
"0.580751","baseline","1050751623","1039172","390","17","8113","-133","-15","-14","2","28.04688","0.0149915","-0.0005824276","0.9938434","0.03029607","-0.1071544","-0.05351706","0.3403982","1.930124","36.31042","-0.05727557","0.8399251","0.2844979","2.786232","-0.3417735","-1.946306","0.9938817","1.976086","1.009","1","1039173","0"
"0.5867294","baseline","1050757672","1039178","400","10","8107","-113","-17","-9","3","28.125","0.01499542","-0.002567381","0.9926081","-0.008081369","0.07490076","0.03480446","0.3403966","1.930371","36.31051","-0.1481952","0.8655036","0.2844919","2.786463","-0.432687","-1.92096","0.9927247","1.974178","1.008","1","1039179","0"
"0.591417","baseline","1050761706","1039182","390","-18","8169","-87","-19","-11","3","28.04688","0.01426307","-0.001974444","0.9945455","0.01949831","0.02230971","-0.02904142","0.3402262","1.930269","36.31051","-0.0555388","0.8171201","0.2843215","2.786362","-0.3398603","-1.969242","0.9949314","1.998354","1.008","1","1039183","0"
"0.5960663","baseline","1050766748","1039187","404","-12","8163","-104","-10","-18","1","28.15625","0.01453336","0.0001259205","0.9954131","-0.0006657392","-0.06401411","-0.1169239","0.3401575","1.929911","36.31037","0.03395026","0.7905554","0.2842137","2.785893","-0.2502635","-1.995338","0.9957322","2.010971","1.008","1","1039188","0"
"0.6012591","baseline","1050771790","1039192","392","25","8115","-157","-12","-4","3","28.0625","0.01497006","-0.0007988904","0.9943541","-0.02417082","-0.08588321","0.1437253","0.3401685","1.92943","36.31067","-0.05996024","0.8656313","0.2842934","2.78551","-0.3442536","-1.919879","0.9939309","1.950499","1.008","1","1039193","0"
"0.6070421","baseline","1050777840","1039198","398","15","8101","-162","-4","-11","-1","28.10938","0.01591018","-0.002294957","0.9928349","0.04499319","-0.1827189","-0.01198399","0.3401228","1.928836","36.31096","-0.1226803","0.9361336","0.2842181","2.784929","-0.4068984","-1.848795","0.9923829","1.893042","1.008","1","1039199","0"
"0.6123586","baseline","1050782882","1039203","400","-20","8157","-109","-7","-14","0","28.125","0.01540314","-0.001918286","0.993657","0.01868203","-0.06852426","-0.06634092","0.3400707","1.928653","36.31086","-0.05286744","0.8754125","0.2841362","2.784674","-0.3370036","-1.909261","0.994005","1.938776","1.008","1","1039204","0"
"0.6170479","baseline","1050787924","1039208","392","-5","8161","-122","-10","-11","1","28.0625","0.01607927","1.093082E-05","0.9945242","-0.03008673","0.02008474","-0.06570721","0.3401885","1.928844","36.3106","0.0006297384","0.9262664","0.2842838","2.784936","-0.283654","-1.85867","0.9951066","1.912727","1.008","1","1039209","0"
"0.6217456","baseline","1050791957","1039212","396","12","8141","-151","-22","-4","3","28.07813","0.01588169","-0.000488115","0.9946063","-0.05737883","0.1068388","0.05461173","0.3404014","1.929221","36.31078","-0.02811859","0.9148107","0.2844967","2.785314","-0.3126153","-1.870503","0.9947332","1.896447","1.009","1","1039213","0"
"0.6267286","baseline","1050796998","1039217","390","50","8148","-125","-16","-9","3","28.04688","0.01471103","-0.002112827","0.9942943","-0.0180303","0.07704019","-0.02203475","0.3404623","1.929525","36.31068","-0.1582693","0.875224","0.2845652","2.785696","-0.4428346","-1.910472","0.9941186","1.961123","1.008","1","1039218","0"
"0.6314369","baseline","1050802039","1039222","404","32","8175","-144","-8","-10","-2","28.15625","0.01604284","-0.003037567","0.9939148","0.09991024","-0.1399941","-0.04642038","0.3401792","1.929316","36.3105","-0.1606075","0.9079686","0.2842017","2.785329","-0.4448091","-1.87736","0.9947764","1.929336","1.009","1","1039223","0"
"0.6361611","baseline","1050806073","1039226","408","-26","8160","-139","-6","-9","2","28.09375","0.01553397","-0.0001775636","0.9954827","-0.007604736","-0.1447465","-0.0406298","0.3400544","1.928835","36.31021","-0.01021981","0.8939972","0.2841497","2.784928","-0.2943695","-1.89093","0.9956039","1.913706","1.008","1","1039227","0"
"0.6407074","baseline","1050811115","1039231","400","-15","8175","-93","-9","-9","2","28.125","0.01382146","0.0002215722","0.9962865","-0.02368229","-0.0813712","-0.05657556","0.3401197","1.928523","36.30996","0.008493817","0.8122867","0.2842179","2.784545","-0.2757241","-1.972258","0.9964916","1.991438","1.008","1","1039232","0"
"0.6453171","baseline","1050815148","1039235","396","15","8146","-68","-15","-11","3","28.09375","0.0137233","-0.000906544","0.9945464","-0.04323888","0.07826761","-0.02510315","0.3402525","1.928661","36.31008","-0.05222595","0.7905484","0.2843479","2.784754","-0.3365738","-1.994206","0.9946415","2.022409","1.008","1","1039237","0"
"0.6497374","baseline","1050820190","1039240","396","11","8109","-133","-14","-14","3","28.09375","0.01389599","-0.002116441","0.9937672","-0.01752724","-0.00698994","-0.04657342","0.3402927","1.928708","36.31014","-0.1161511","0.8108319","0.2844049","2.784791","-0.400556","-1.97396","0.9931341","2.01419","1.009","1","1039241","0"
"0.654117","baseline","1050824224","1039245","404","-13","8160","-99","-12","-8","1","28.15625","0.01356319","-0.001851102","0.9939001","-0.01620637","0.014942","-0.0156923","0.3404557","1.928787","36.31001","-0.1067111","0.7818329","0.284551","2.78488","-0.3912621","-2.003047","0.9939944","2.024538","1.009","1","1039246","0"
"0.6590572","baseline","1050829266","1039249","390","9","8159","-94","-13","-10","4","28.03125","0.01466989","-0.0005296233","0.9945344","-0.02884878","-0.07230526","0.004807757","0.3405113","1.928254","36.31015","-0.03051194","0.8450806","0.2846066","2.784347","-0.3151186","-1.939266","0.9946427","1.964702","1.008","1","1039251","0"
"0.6639856","baseline","1050834308","1039254","400","18","8137","-134","-11","-9","1","28.125","0.01453397","-0.0009776034","0.9945698","-0.02209079","0.03346002","-0.02427684","0.3405693","1.928194","36.31016","-0.05631835","0.8694896","0.2846647","2.784287","-0.340983","-1.914797","0.9946848","1.944921","1.008","1","1039255","0"
"0.6855828","baseline","1050856491","1039276","398","0","8113","-131","-13","-12","0","28.10938","0.0151135","-0.0003521298","0.9942595","0.01247813","-0.03006863","0.006981578","0.3407003","1.929702","36.30981","-0.02377746","0.8725559","0.2847837","2.785748","-0.3085611","-1.913192","0.9939688","1.937915","1.009","1","1039277","0"
"0.6908837","baseline","1050861532","1039281","392","32","8125","-133","-14","-8","1","28.0625","0.01484054","-0.002596874","0.993898","0.01227789","-0.004034219","0.009388791","0.3406519","1.929525","36.30983","-0.1260413","0.8520153","0.2847053","2.78564","-0.4107465","-1.933625","0.9933711","1.976769","1.009","1","1039282","0"
"0.6956976","baseline","1050866574","1039286","388","25","8167","-84","-19","-9","3","28.03125","0.01427865","-0.002287283","0.9942577","-0.006700921","0.02268994","-0.02437832","0.3405007","1.929438","36.3098","-0.1318083","0.8227729","0.284596","2.785531","-0.3976868","-2.000955","0.9946635","2.040092","1.009","1","1039287","0"
"0.7014254","baseline","1050871616","1039292","406","-5","8164","-95","-13","-15","3","28.17188","0.01384864","-0.0005389901","0.9956988","-0.01827948","0.01422832","-0.07121211","0.3404877","1.929603","36.30986","-0.03101526","0.796845","0.284583","2.785696","-0.3155983","-1.988851","0.9957952","2.048119","1.008","1","1039293","0"
"0.7325358","baseline","1050902876","1039323","406","25","8102","-135","-12","-8","1","28.17188","0.01428083","-0.003254892","0.9927582","0.003995172","-0.05767173","0.006277858","0.3408092","1.931079","36.30983","-0.1878513","0.8241385","0.2849045","2.787171","-0.4727558","-1.963033","0.9928662","2.019157","1.008","1","1039324","0"
"0.7377647","baseline","1050907918","1039327","400","29","8160","-129","-12","-10","1","28.125","0.01469119","-0.002634693","0.9937862","0.03015645","-0.03356314","-0.02570613","0.3407206","1.931026","36.30986","-0.1519003","0.8469416","0.2848159","2.787119","-0.4367162","-1.940177","0.9938983","1.98872","1.008","1","1039328","0"
"0.7425927","baseline","1050912960","1039332","386","0","8159","-150","-8","-11","1","28.01563","0.0152028","-0.0007406467","0.9948139","0.005226314","-0.08257692","-0.01525683","0.3406841","1.930846","36.30983","-0.03142633","0.8625205","0.2847689","2.786856","-0.3161952","-1.924336","0.9950911","1.950141","1.008","1","1039333","0"
"0.7474758","baseline","1050918001","1039337","392","10","8135","-150","-12","-8","5","28.0625","0.01476662","-0.0002816636","0.9950613","-0.09499843","0.01233886","0.007068602","0.3409469","1.930837","36.30965","-0.0270441","0.8932761","0.2851123","2.786921","-0.3121563","-1.893645","0.9944168","1.919201","1.007","1","1039338","0"
"0.7523159","baseline","1050923041","1039342","386","60","8160","-129","-16","-4","5","28.01563","0.01440745","-0.002535057","0.9942543","-0.03929305","0.02234768","0.03592468","0.3410974","1.930844","36.3096","-0.1460871","0.8301955","0.2851927","2.786937","-0.4312798","-1.956741","0.9943619","1.963637","1.008","1","1039343","0"
"0.778887","baseline","1050949259","1039368","388","35","8170","-113","-15","-11","3","28.23438","0.01398348","-0.002637111","0.9941025","0.007869447","0.04189373","-0.03469436","0.340825","1.931893","36.30929","-0.1519913","0.8058912","0.2849203","2.787986","-0.4369117","-1.982095","0.9942043","2.029678","1.009","1","1039369","0"
"0.7841186","baseline","1050954301","1039373","392","4","8143","-125","-16","-10","2","28.125","0.01398953","-0.0003245594","0.9947414","-0.01053474","0.03132457","-0.05177058","0.3409219","1.932033","36.30928","-0.01869419","0.8057252","0.2850172","2.788126","-0.3037114","-1.982401","0.9948398","2.005531","1.007","1","1039374","0"
"0.7890247","baseline","1050959341","1039378","406","2","8160","-138","-11","-4","3","28.17188","0.01346223","0.0001581872","0.9951219","-0.05335191","-0.02935591","0.03860361","0.3410577","1.931906","36.30918","0.009107887","0.8193274","0.285153","2.787999","-0.2760451","-1.968671","0.9952236","1.987931","1.009","1","1039379","0"
"0.7940987","baseline","1050964383","1039383","396","33","8165","-92","-18","-8","7","28.09375","0.013089","-0.001358575","0.9948248","-0.112157","0.1089987","0.0143515","0.3413879","1.932178","36.30933","-0.09816722","0.7780402","0.2854832","2.788271","-0.3836504","-2.010231","0.9949644","2.046513","1.009","1","1039384","0"
"0.8265805","baseline","1050997659","1039416","394","9","8170","-124","-12","-13","-1","28.07813","0.01467398","-0.0003416658","0.9952933","0.05101821","-0.0576668","-0.01223923","0.3418284","1.931937","36.30917","-0.01966858","0.8052733","0.2859051","2.788037","-0.2924223","-1.982764","0.9955961","2.004211","1.009","1","1039417","0"
"0.8319627","baseline","1051002701","1039421","394","10","8128","-139","-16","-6","2","28.07813","0.01397331","-0.0003738025","0.9949983","-0.02925089","0.04101628","0.0704913","0.3419617","1.932073","36.3093","-0.02152496","0.8045832","0.2860571","2.788166","-0.307582","-1.970219","0.9944023","1.995298","1.008","1","1039422","0"
"0.8364877","baseline","1051006735","1039425","394","49","8153","-111","-13","-9","2","28.07813","0.01356813","-0.002190755","0.9940162","0.00598306","-0.03132181","-0.005426039","0.3419429","1.932095","36.30941","-0.1453125","0.8187085","0.2860382","2.788188","-0.4313507","-1.969479","0.9940825","2.016163","1.008","1","1039426","0"
"0.8410589","baseline","1051011777","1039430","400","32","8149","-127","-17","-10","4","28.125","0.01459363","-0.002032299","0.9927644","-0.008907186","-0.008055877","-0.04102725","0.3418452","1.931919","36.30932","-0.1172907","0.8421854","0.2859417","2.788021","-0.426973","-1.95161","0.9936917","1.997771","1.008","1","1039431","0"
"0.8457334","baseline","1051015810","1039434","400","-27","8154","-131","-8","-8","2","28.125","0.01415927","-0.0005165082","0.9947173","0.006810453","-0.09084171","0.007798661","0.3417922","1.931652","36.30925","-0.02057177","0.8534353","0.2858875","2.787745","-0.3064592","-1.934309","0.9948277","1.958436","1.009","1","1039435","0"
"0.8502242","baseline","1051020852","1039439","408","-27","8178","-72","-11","-8","3","28.1875","0.01391337","0.0002086751","0.9956669","-0.01901429","-0.0744956","-0.03387257","0.3417807","1.931341","36.30914","0.02680916","0.7848487","0.2858865","2.787346","-0.2590774","-2.002497","0.995983","2.019187","1.009","1","1039440","0"
"0.8725925","baseline","1051043030","1039461","396","0","8160","-108","-10","-4","4","28.09375","0.01339125","0.0002376518","0.9955089","-0.04833918","-0.06820966","0.06097891","0.3423134","1.930757","36.30943","-0.005207157","0.811372","0.2864087","2.786849","-0.2916158","-1.975477","0.9952949","1.996885","1.008","1","1039462","0"
"0.8776131","baseline","1051048072","1039466","388","48","8134","-107","-15","-8","2","28.03125","0.01447216","-0.001452111","0.9934802","-0.03469735","0.06865532","-0.02344187","0.3425163","1.930971","36.3094","-0.126312","0.8385593","0.2866335","2.787073","-0.4129455","-1.948513","0.9934227","1.99179","1.008","1","1039467","0"
"0.8823192","baseline","1051052105","1039471","388","17","8124","-118","-12","-13","3","28.03125","0.01515721","-0.002076944","0.9916964","-0.01354139","0.02110114","-0.03991044","0.3425465","1.931062","36.30955","-0.1199964","0.8756456","0.2866418","2.787155","-0.4066381","-1.911509","0.9918144","1.942996","1.009","1","1039472","0"
"0.9042605","baseline","1051075298","1039493","394","37","8155","-132","-15","-7","2","28.07813","0.0151331","-0.00284768","0.9927016","0.0186929","-0.03056994","0.03848115","0.342614","1.930364","36.30945","-0.1605062","0.8626254","0.2866924","2.78647","-0.4471986","-1.923844","0.9936465","1.975136","1.008","1","1039494","0"
"0.909882","baseline","1051080340","1039498","384","-10","8160","-130","-13","-9","3","28","0.01453224","-0.0001431682","0.995187","0.00399573","-0.03397685","0.02490371","0.342531","1.930267","36.3096","-0.01362354","0.8443763","0.286649","2.78634","-0.3002726","-1.941964","0.9952646","1.965041","1.008","1","1039499","0"
"0.9146722","baseline","1051085382","1039503","406","4","8158","-131","-14","-7","5","28.17188","0.0134787","0.0001313361","0.9958128","-0.02732645","0.01799646","0.01517959","0.3425913","1.930276","36.30959","0.007556643","0.7754723","0.2866866","2.786394","-0.2971093","-1.958532","0.995303","1.980939","1.007","1","1039504","0"
"0.9193028","baseline","1051089415","1039507","396","30","8135","-104","-13","-9","2","28.03125","0.01434454","-0.001803418","0.9935409","-0.007825769","0.01580683","-0.01109388","0.3427581","1.930423","36.30967","-0.1039999","0.8271657","0.2868535","2.786516","-0.3908533","-1.95935","0.9936461","1.997954","1.008","1","1039509","0"
"0.950526","baseline","1051121682","1039539","398","-10","8155","-121","-6","-9","-1","28.10938","0.01521922","-0.001379095","0.9945962","0.04485419","-0.01946259","-0.01838021","0.3430973","1.931813","36.31005","-0.07944557","0.8766658","0.2871465","2.787916","-0.3528827","-1.898541","0.9946252","1.931058","1.008","1","1039540","0"
"0.9560933","baseline","1051126722","1039544","394","12","8171","-100","-2","-7","-1","28.07813","0.01378463","-0.0006368847","0.99571","0.07508253","-0.2018383","-0.04298786","0.3428095","1.931586","36.30982","-0.05535957","0.8101637","0.2868184","2.787453","-0.342178","-1.97729","0.9955417","2.006679","1.008","1","1039545","0"
"0.9608858","baseline","1051130754","1039549","388","42","8144","-82","-15","-6","1","28.03125","0.01375277","-0.002136503","0.9934435","0.03546786","-0.04483818","0.0430578","0.3424912","1.930891","36.30994","-0.1232203","0.7931234","0.2865865","2.786984","-0.4098068","-1.993861","0.9935411","2.03554","1.008","1","1039550","0"
"0.9654172","baseline","1051135796","1039553","402","11","8103","-121","-15","-10","3","28.14063","0.01433634","-0.002892331","0.9922995","-0.006606472","0.03403028","-0.01795959","0.3424124","1.931017","36.30993","-0.1517252","0.8285083","0.2865077","2.787109","-0.4382329","-1.958601","0.9922147","2.007029","1.009","1","1039554","0"
"0.9700553","baseline","1051140838","1039558","392","-24","8161","-95","-3","-10","1","28.0625","0.01376922","-0.001599907","0.9937435","-0.02412418","-0.1355151","-0.03910147","0.3424949","1.93078","36.3098","-0.09224496","0.7938336","0.2865902","2.786873","-0.3788352","-1.99304","0.9941538","2.024019","1.009","1","1039559","0"
"0.9972352","baseline","1051168061","1039585","404","0","8165","-72","-16","-8","1","28.15625","0.01322262","-0.000355284","0.9956402","-0.0002111401","0.06300227","0.01198482","0.3417225","1.929133","36.30887","-0.02834251","0.7649323","0.2858043","2.78528","-0.3141468","-2.020348","0.9957816","2.044626","1.008","1","1039586","0"
"1.0024995","baseline","1051173103","1039590","404","15","8138","-90","-18","-11","2","28.1875","0.01308565","-0.001715258","0.9940949","-0.005000887","0.09409678","-0.01649172","0.3416889","1.929487","36.30912","-0.09886076","0.7541618","0.2857842","2.78558","-0.384645","-2.031418","0.9941825","2.067513","1.008","1","1039592","0"
"1.0077111","baseline","1051178145","1039595","408","4","8094","-120","-8","-10","3","28.1875","0.01377275","-0.002262799","0.9921795","-0.01076275","-0.004856654","-0.02890408","0.3416821","1.929801","36.30907","-0.1211616","0.7990679","0.2857774","2.785831","-0.406939","-1.986763","0.991989","2.028011","1.008","1","1039596","0"
"1.0122954","baseline","1051183187","1039600","408","-34","8160","-90","-14","-7","2","28.1875","0.01308627","-0.0006017734","0.9943264","0.02087771","-0.02483498","-0.02123817","0.3415521","1.929525","36.30887","-0.03467581","0.7540225","0.2856474","2.785618","-0.3203232","-2.031595","0.9944996","2.04955","1.008","1","1039601","0"
"1.0429687","baseline","1051213438","1039630","404","17","8109","-129","-13","-16","1","28.17188","0.01414852","-0.001289575","0.993373","-0.004229991","0.02209101","-0.08267131","0.3411944","1.929678","36.30825","-0.07438007","0.8160024","0.2852897","2.785771","-0.3596697","-1.969769","0.9934745","2.002336","1.008","1","1039632","0"
"1.0494693","baseline","1051219488","1039636","402","14","8106","-133","-17","-9","3","28.15625","0.01447576","-0.003057122","0.992273","-0.007866332","0.06807963","-4.843948E-05","0.3411493","1.929789","36.30821","-0.1765236","0.8357952","0.2852446","2.785882","-0.4617682","-1.950087","0.9923832","2.004013","1.009","1","1039637","0"
"1.054325","baseline","1051224530","1039641","400","-17","8168","-86","-16","-12","4","28.125","0.0138416","-0.002145656","0.9942105","-0.04713641","0.07901534","-0.03642436","0.3412957","1.930403","36.30816","-0.0761225","0.792465","0.285391","2.786496","-0.3615135","-1.994031","0.994644","2.026537","1.009","1","1039642","0"
"1.0589919","baseline","1051229572","1039646","388","-8","8164","-96","-11","-12","1","28.03125","0.0144259","-1.451098E-05","0.995066","0.01001865","-0.04946199","-0.02686207","0.3412842","1.930313","36.30819","0.01489693","0.7943588","0.2853658","2.786366","-0.2704689","-1.992008","0.9956152","2.010286","1.009","1","1039647","0"
"1.0638303","baseline","1051234614","1039651","392","24","8115","-143","-14","-9","4","28.0625","0.01486147","-0.0007959179","0.9945206","-0.06234246","0.04711046","0.04068292","0.3414263","1.930416","36.30839","-0.04585398","0.8561267","0.2855216","2.786509","-0.3313756","-1.919653","0.9941489","1.951466","1.009","1","1039652","0"
"1.0886476","baseline","1051259822","1039676","398","50","8144","-114","-8","-8","2","28.10938","0.01338602","-0.002449333","0.9942709","0.0247209","-0.07173887","0.0002324376","0.3406183","1.930694","36.30896","-0.1411448","0.7713331","0.2847137","2.786787","-0.4258584","-2.002155","0.9936301","2.04741","1.008","1","1039677","0"
"1.0937988","baseline","1051263855","1039680","408","35","8154","-128","-11","-11","1","28.1875","0.01417697","-0.002446978","0.9929728","0.04338999","-0.04031882","-0.03595827","0.3404193","1.930438","36.309","-0.1555418","0.8272141","0.2845146","2.786531","-0.4400564","-1.959317","0.9938654","2.008127","1.009","1","1039681","0"
"1.0981892","baseline","1051268896","1039685","400","-25","8150","-136","-12","-8","0","28.125","0.01392801","-0.000279635","0.9949788","0.01728497","0.001315374","-0.01980772","0.3403745","1.930501","36.30884","-0.01610276","0.8019911","0.2844698","2.786594","-0.3005725","-1.984603","0.9951035","1.986041","1.008","1","1039686","0"
"1.1026856","baseline","1051273938","1039690","398","-3","8155","-91","-21","-5","4","28.10938","0.01266647","-0.0003246483","0.9954908","-0.02370181","0.1023145","0.001611039","0.3403879","1.930629","36.30866","-0.01868523","0.7289831","0.2844832","2.786722","-0.3031684","-2.057739","0.9952071","2.061424","1.008","1","1039691","0"
"1.119039","baseline","1051290069","1039706","402","-19","8160","-124","-17","-10","4","28.14063","0.01422085","2.386182E-05","0.9949486","-0.008063033","0.02382616","-0.05555338","0.340204","1.930698","36.30866","0.001374123","0.8188756","0.2842993","2.78682","-0.283142","-1.952028","0.995352","1.972456","1.008","1","1039707","0"
"1.1240797","baseline","1051294102","1039710","406","-12","8179","-75","-12","-8","1","28.17188","0.01319306","0.0002734378","0.9963312","0.01370763","0.01937982","0.003758807","0.3401229","1.930669","36.30839","0.01572452","0.7586457","0.2842183","2.786762","-0.2684937","-2.028116","0.9964185","2.045811","1.009","1","1039711","0"
"1.1499752","baseline","1051321329","1039737","380","31","8142","-101","-14","-5","3","27.96875","0.01322405","-0.001949143","0.9939119","-0.02843449","0.03163846","0.02521784","0.3400725","1.931001","36.30797","-0.1123616","0.7622771","0.2841678","2.787093","-0.3965294","-2.024816","0.994008","2.038002","1.008","1","1039738","0"
"1.1553464","baseline","1051325362","1039741","386","-11","8098","-120","-11","-7","1","28","0.01487978","-0.001963805","0.9923021","0.0212471","-0.01026547","0.02496282","0.3400361","1.930983","36.3081","-0.1133905","0.8590961","0.2841314","2.787076","-0.3975219","-1.92798","0.9924155","1.968535","1.008","1","1039743","0"
"1.1600501","baseline","1051330404","1039746","406","-16","8162","-122","-12","-10","1","28.17188","0.01438131","-0.001269103","0.9947171","0.03287317","-0.04473576","-0.01776745","0.3399234","1.93083","36.30814","-0.05704575","0.8630739","0.2839829","2.786896","-0.3410287","-1.923822","0.9948358","1.953815","1.009","1","1039747","0"
"1.1659682","baseline","1051338471","1039754","392","20","8131","-153","-12","-8","5","28.0625","0.01489621","-0.0008786204","0.9951262","-0.06527936","-0.01073779","-0.009358322","0.3399239","1.930627","36.30777","-0.05058778","0.8576055","0.2840192","2.78672","-0.3346069","-1.929114","0.9945655","1.936857","1.009","1","1039755","0"
"1.1724938","baseline","1051342505","1039759","412","38","8142","-129","-18","-4","3","28.21875","0.01460679","-0.002081917","0.9940195","-0.005224069","0.06353821","0.0405675","0.3399605","1.930808","36.30769","-0.1200026","0.8418801","0.2840558","2.786901","-0.4040584","-1.945021","0.994129","1.964557","1.009","1","1039760","0"
"1.1967503","baseline","1051367714","1039783","400","15","8117","-118","-17","-9","2","28.125","0.01429452","-0.002420435","0.9920259","0.005077893","0.06358664","0.004077888","0.3398579","1.931655","36.30832","-0.1455204","0.8362747","0.2839572","2.787845","-0.4294777","-1.951571","0.9925283","1.998269","1.009","1","1039784","0"
"1.2030105","baseline","1051373765","1039789","400","-4","8137","-128","-10","-7","3","28.125","0.01441683","-0.0003933722","0.9941149","-0.003070072","-0.07848072","0.02216993","0.339783","1.931744","36.3083","-0.03692955","0.8396653","0.2838784","2.787837","-0.3208079","-1.948172","0.9942219","1.974409","1.008","1","1039790","0"
"1.2082601","baseline","1051378805","1039794","390","-9","8160","-108","-5","-6","0","28.04688","0.01305101","0.0006231635","0.9952802","0.04130794","-0.1257238","0.01117514","0.3396747","1.931402","36.30833","0.03587395","0.7940404","0.2837323","2.787341","-0.2758353","-1.9933","0.9949627","2.012295","1.008","1","1039795","0"
"1.2128149","baseline","1051382838","1039798","390","12","8126","-117","-17","-9","5","28.0625","0.01451276","-0.001288492","0.9933968","-0.03632673","0.05458459","0.01797062","0.3396369","1.931276","36.30863","-0.07431584","0.8369868","0.2837322","2.787369","-0.3580481","-1.950382","0.9935036","1.982975","1.008","1","1039799","0"
"1.2282467","baseline","1051398972","1039814","400","-15","8166","-67","-11","-11","0","28.125","0.01304939","-0.0002690804","0.9953092","0.04343676","-0.05504342","-0.0837034","0.3398738","1.930855","36.30886","-0.006345007","0.7321888","0.2839234","2.786883","-0.2902684","-2.054694","0.995573","2.075096","1.008","1","1039815","0"
"1.2333364","baseline","1051404014","1039819","398","32","8126","-106","-22","-11","5","28.10938","0.01418282","-0.001350929","0.9935897","-0.06166198","0.1684885","-0.04461735","0.3399123","1.931044","36.30869","-0.07790188","0.817802","0.2840076","2.787137","-0.4031811","-1.990963","0.9937558","2.031376","1.007","1","1039820","0"
"1.2601609","baseline","1051431238","1039846","408","25","8124","-105","-11","-10","1","28.1875","0.01444159","-0.002659425","0.9923667","-0.0130007","-0.01519308","-0.02705469","0.3401557","1.931182","36.30874","-0.1535455","0.8337451","0.284251","2.787274","-0.4377965","-1.953529","0.9927922","2.018958","1.009","1","1039847","0"
"1.2655576","baseline","1051436280","1039851","388","-8","8152","-130","-14","-8","1","28.03125","0.01365543","-0.001344123","0.9944139","-0.002311543","-0.01844227","0.006946425","0.3402499","1.930995","36.30873","-0.07744516","0.7867432","0.2843452","2.787088","-0.3617904","-1.988135","0.9947197","2.019401","1.009","1","1039852","0"
"1.2866897","baseline","1051457456","1039872","384","-29","8143","-123","-7","-7","2","28","0.01330057","-0.0001423953","0.9940493","-0.002622749","-0.1004365","-0.02085179","0.3403459","1.931063","36.30857","0.002021765","0.7946342","0.2844496","2.787091","-0.2824279","-1.992457","0.9940044","2.012374","1.009","1","1039873","0"
"1.2914675","baseline","1051461490","1039876","398","-11","8169","-73","-12","-11","4","28.10938","0.01268347","0.0002630937","0.9950913","-0.02750516","-0.02358419","-0.04604653","0.3404547","1.930993","36.30844","0.01514852","0.6958111","0.28455","2.787086","-0.2694015","-2.091275","0.9951647","2.108556","1.008","1","1039877","0"
"1.2958809","baseline","1051466532","1039881","384","25","8114","-104","-17","-13","4","28","0.01285347","-0.001120044","0.9935817","-0.03216222","0.05714104","-0.04121818","0.3405233","1.931068","36.30846","-0.06458829","0.7411652","0.2846186","2.787161","-0.3492069","-2.073095","0.9935164","2.106893","1.008","1","1039882","0"
"1.3004046","baseline","1051470566","1039885","392","34","8124","-118","-11","-7","3","28.10938","0.01259474","-0.002492558","0.9928775","-0.02144184","0.02544242","0.006043144","0.340681","1.931336","36.30849","-0.1438372","0.7267609","0.2847763","2.787429","-0.4286135","-2.060668","0.9929606","2.104771","1.008","1","1039886","0"
"1.3056631","baseline","1051475607","1039891","390","-10","8178","-82","-7","-12","-1","28.04688","0.01238625","-0.002679765","0.9946215","0.01872462","-0.04274853","-0.04436627","0.3407417","1.931616","36.30846","-0.1543691","0.7134779","0.284837","2.787709","-0.4392062","-2.074231","0.9950078","2.123624","1.008","1","1039892","0"
"1.3103765","baseline","1051480649","1039895","384","17","8145","-133","-18","-7","4","28","0.01341457","-0.000972059","0.994635","-0.02464559","-0.01996579","0.04822583","0.3406759","1.931223","36.30859","-0.05602339","0.7592601","0.2848069","2.787376","-0.3408303","-2.028116","0.9949542","2.056556","1.008","1","1039896","0"
"1.3368969","baseline","1051507873","1039922","380","0","8114","-140","-12","-8","3","27.96875","0.01517244","1.256404E-06","0.994539","-0.02405383","-0.074399","0.06600762","0.3411027","1.930839","36.30934","0.00117677","0.8595722","0.2852128","2.786915","-0.2840361","-1.927343","0.9942198","1.94816","1.008","1","1039923","0"
"1.342051","baseline","1051512914","1039927","394","25","8120","-125","-8","-6","0","28.07813","0.01471059","-0.001731066","0.9941442","0.05462474","-0.1020339","0.04327189","0.3409733","1.930638","36.30951","-0.09976687","0.8477563","0.2850686","2.786731","-0.3848354","-1.945472","0.9934776","1.981851","1.009","1","1039928","0"
"1.34671","baseline","1051516948","1039931","406","39","8160","-133","-13","-9","0","28.17188","0.01518529","-0.002345845","0.9936671","0.0307922","-0.05327205","-0.00849449","0.3408827","1.930323","36.30956","-0.1171097","0.855746","0.2849737","2.786416","-0.4020834","-1.93067","0.9942036","1.972095","1.008","1","1039932","0"
"1.3514318","baseline","1051521990","1039936","396","3","8162","-148","-5","-10","3","28.09375","0.01556471","-0.0001223641","0.9948171","-0.01574087","-0.08647797","-0.01525868","0.3409204","1.930372","36.3095","-0.009269927","0.8841807","0.2850105","2.786328","-0.2942805","-1.902147","0.9954672","1.924777","1.008","1","1039937","0"
"1.3683816","baseline","1051539133","1039953","380","11","8174","-101","-13","-9","4","27.96875","0.01369935","-0.002673835","0.9939784","-0.03444921","0.04394169","-0.01145974","0.3407571","1.929921","36.30952","-0.1017606","0.7847312","0.2848727","2.786005","-0.3866333","-2.001273","0.9942926","2.038279","1.008","1","1039954","0"
"1.3733545","baseline","1051544175","1039958","406","6","8159","-108","-14","-12","3","28.17188","0.01427366","-0.0006500468","0.994768","0.01210412","-0.05890403","-0.01577226","0.3406825","1.929593","36.30962","-0.03744082","0.8220651","0.2847778","2.785686","-0.3222187","-1.963621","0.9950893","2.031717","1.008","1","1039959","0"
"1.4000535","baseline","1051570392","1039984","396","3","8117","-120","-20","-10","4","28.09375","0.01505837","-0.0004621566","0.9943092","-0.06715795","0.09255281","-0.007320155","0.3411093","1.929539","36.30988","-0.02663117","0.8676524","0.2852046","2.785631","-0.3118358","-1.917979","0.9944233","1.943164","1.008","1","1039986","0"
"1.4055117","baseline","1051575434","1039989","396","15","8106","-136","-19","-10","5","28.09375","0.01531126","-0.001811646","0.993611","-0.05822647","0.08599412","0.02951336","0.3413655","1.929847","36.3101","-0.104467","0.8828399","0.2854609","2.785939","-0.3899279","-1.9031","0.9937306","1.942635","1.008","1","1039991","0"
"1.4102825","baseline","1051580475","1039994","390","20","8174","-111","-11","-9","0","28.07813","0.01537333","-0.001674171","0.9943575","0.03185415","-0.01126609","0.00521308","0.3414038","1.930062","36.31009","-0.09646717","0.8857536","0.2854991","2.786155","-0.3819662","-1.900401","0.9944777","1.938407","1.008","1","1039995","0"
"1.4150805","baseline","1051585516","1039999","408","13","8167","-141","-12","-10","2","28.1875","0.01555126","-0.0004385092","0.9949597","-0.00163342","0.008564556","-0.01411867","0.3413552","1.930106","36.31016","-0.0234721","0.856952","0.2854267","2.786165","-0.3088988","-1.929214","0.9952703","1.953787","1.009","1","1040000","0"
"1.4197386","baseline","1051589550","1040004","400","21","8142","-142","-10","-8","3","28.125","0.01441422","-0.0003302124","0.9957145","0.01209027","-0.1104072","0.01192669","0.3411785","1.92975","36.31014","-0.0190012","0.8293706","0.2852738","2.785843","-0.304275","-1.956472","0.9958189","1.956424","1.008","1","1040005","0"
"1.4468801","baseline","1051617785","1040031","398","45","8117","-158","-10","-8","0","28.10938","0.01495783","-0.002572416","0.9934122","0.01094516","-0.01010757","0.04056326","0.3411138","1.930073","36.31035","-0.1428289","0.8829258","0.2851798","2.786141","-0.4280087","-1.903215","0.9926419","1.950749","1.008","1","1040032","0"
"1.4523672","baseline","1051622825","1040036","380","22","8158","-115","-12","-9","0","27.96875","0.01554529","-0.00256953","0.9935873","0.02854727","0.02383839","0.01961341","0.3410169","1.930147","36.31055","-0.1223815","0.879919","0.28508","2.786217","-0.4074615","-1.906298","0.9941818","1.949358","1.008","1","1040037","0"
"1.4570672","baseline","1051627866","1040041","406","16","8146","-141","-15","-12","0","28.17188","0.01566794","-0.001260102","0.9945698","0.03336119","-0.03401431","-0.01571699","0.3408898","1.929883","36.31065","-0.07259268","0.9025325","0.2849851","2.785976","-0.3575778","-1.883444","0.994694","1.929551","1.009","1","1040042","0"
"1.4615911","baseline","1051631900","1040045","392","11","8146","-143","-9","-5","1","28.0625","0.01435932","-0.0005219096","0.9952853","0.0344738","-0.03783639","0.02683699","0.3407187","1.92985","36.31061","-0.05318042","0.855441","0.2847898","2.785942","-0.3379702","-1.930501","0.9946923","1.959862","1.008","1","1040046","0"
"1.4784631","baseline","1051649039","1040062","408","-3","8163","-118","-14","-11","2","28.1875","0.0154698","-0.0004727235","0.9949824","0.01150672","-0.01613251","-0.01836008","0.3405613","1.930628","36.31096","-0.001721927","0.8687627","0.2846566","2.786721","-0.2863786","-1.917958","0.9950967","1.939221","1.009","1","1040063","0"
"1.4837155","baseline","1051654081","1040067","404","20","8123","-167","-15","-9","3","28.15625","0.01563369","-0.0004364958","0.9937193","-0.04095209","0.1136072","-0.01225596","0.3405945","1.930786","36.31103","-0.02516743","0.9013311","0.2846898","2.786879","-0.3098572","-1.885548","0.9938424","1.910838","1.009","1","1040068","0"
"1.5096398","baseline","1051680300","1040093","392","46","8117","-129","-15","-9","2","28.0625","0.01482566","-0.002815787","0.9932435","-0.03756869","0.04964698","-0.01644973","0.3410118","1.930548","36.31077","-0.1524216","0.8664902","0.2851274","2.786641","-0.4375489","-1.920151","0.9925928","1.969373","1.008","1","1040094","0"
"1.514844","baseline","1051685342","1040098","408","41","8162","-116","-14","-12","3","28.1875","0.01538563","-0.003278967","0.9924545","-0.01314077","0.05753063","-0.03221735","0.3410689","1.930791","36.31076","-0.1703107","0.8438305","0.2851676","2.786914","-0.4554783","-1.943084","0.9933955","1.995754","1.042","1","1040099","0"
"1.5197455","baseline","1051690384","1040103","384","10","8150","-149","-11","-12","1","28","0.01535585","-0.0009539021","0.9942052","0.03755281","-0.02301609","-0.01996602","0.3409351","1.930846","36.31075","-0.06075241","0.8905939","0.2849874","2.786905","-0.3457398","-1.896311","0.9944318","1.927571","1.008","1","1040104","0"
"1.5245615","baseline","1051695425","1040108","394","33","8134","-153","-17","-2","3","28.07813","0.01460392","-0.001208864","0.994652","0.008417856","-0.02098462","0.06165738","0.3407231","1.930521","36.31054","-0.06963519","0.8411807","0.2848184","2.786614","-0.3624201","-1.916622","0.9940475","1.950587","1.008","1","1040109","0"
"1.5295263","baseline","1051700467","1040113","396","70","8153","-122","-9","-11","0","28.09375","0.01441112","-0.003036506","0.9931497","0.03251461","0.0206973","-0.01063596","0.3406713","1.931129","36.3108","-0.1751784","0.8313293","0.2847666","2.787217","-0.4957261","-1.936019","0.9934619","1.998478","1.008","1","1040114","0"
"1.5560379","baseline","1051726685","1040139","390","35","8156","-127","-9","-12","3","28.04688","0.01534984","-0.002325358","0.9927611","-0.005133823","-0.01978648","-0.0720673","0.3401504","1.931061","36.31123","-0.1407785","0.8543712","0.2842457","2.787153","-0.4250242","-1.932782","0.9934031","1.978962","1.008","1","1040140","0"
"1.5610405","baseline","1051731727","1040144","388","-4","8160","-106","-4","-9","2","28.03125","0.01390949","-0.0002308824","0.9943565","0.005302661","-0.1304607","0.02617677","0.3401117","1.930972","36.31126","-0.01330367","0.7968036","0.2841865","2.786928","-0.2987229","-1.990125","0.9947283","2.012419","1.008","1","1040145","0"
"1.5657216","baseline","1051735760","1040148","384","-13","8171","-67","-8","-10","4","28.07813","0.01257684","0.0004556054","0.9955584","-0.02481633","-0.155428","-0.03456219","0.3400366","1.930242","36.31075","0.02622072","0.7237762","0.2841319","2.786335","-0.2579112","-2.062559","0.995638","2.078621","1.009","1","1040150","0"
"1.5703919","baseline","1051740802","1040153","404","16","8132","-108","-14","-10","4","28.15625","0.0136946","-0.00133862","0.9939548","-0.04828272","-0.04743769","-0.05059877","0.3402143","1.92995","36.31075","-0.07716372","0.7846933","0.2843096","2.786043","-0.3614734","-2.001349","0.9940489","2.033731","1.009","1","1040154","0"
"1.5873619","baseline","1051757945","1040170","392","3","8145","-129","-14","-7","3","28.0625","0.01384976","-5.201624E-05","0.9954981","0.002763582","0.02051377","0.002941565","0.3403086","1.929277","36.31016","-0.01924563","0.8372058","0.2844039","2.78537","-0.3036495","-1.948164","0.9949632","1.971686","1.008","1","1040171","0"
"1.5923956","baseline","1051762987","1040175","394","35","8155","-127","-17","-6","2","28.07813","0.01424282","-0.001664546","0.9941052","-0.01420699","0.06646992","0.03305678","0.3404156","1.929542","36.31021","-0.1320724","0.8648495","0.2845087","2.785711","-0.4165811","-1.920861","0.9940524","1.965514","1.008","1","1040176","0"
"1.6183847","baseline","1051789205","1040201","400","37","8140","-124","-14","-11","4","28.125","0.01535593","-0.002538642","0.9922863","-0.01312535","0.03077487","-0.01025309","0.340257","1.929599","36.31036","-0.1545485","0.8717982","0.2843769","2.785725","-0.4389254","-1.913926","0.99297","1.963611","1.008","1","1040202","0"
"1.6233472","baseline","1051793238","1040205","386","-26","8157","-122","-14","-8","2","28.04688","0.01454127","-0.0004150849","0.9943422","-0.003752366","0.03523569","0.01844285","0.3403177","1.92976","36.31038","-0.02391794","0.8378344","0.284413","2.785853","-0.308331","-1.948018","0.9944486","1.972269","1.008","1","1040207","0"
"1.6279716","baseline","1051798280","1040210","400","-10","8180","-75","-10","-9","3","28.125","0.01315526","7.176815E-06","0.9958358","-0.02108607","-0.02758933","-0.005066552","0.3403295","1.929782","36.31041","-0.00522097","0.7380146","0.2844462","2.785847","-0.2896672","-2.047833","0.9961336","2.068218","1.008","1","1040211","0"
"1.6322387","baseline","1051802313","1040214","396","25","8114","-140","-19","-9","4","28.09375","0.0143549","-0.001320555","0.9943504","-0.03842565","0.0989814","-0.002838625","0.3404798","1.930066","36.31052","-0.09750937","0.8154266","0.2845751","2.786159","-0.3820844","-1.970732","0.9942644","2.00743","1.008","1","1040215","0"
"1.6490326","baseline","1051819456","1040231","394","-9","8187","-84","-15","-8","4","28.07813","0.01367028","-0.0002179836","0.995637","-0.03184077","0.03722766","-0.003721561","0.3405441","1.930692","36.31078","-0.02948247","0.7696124","0.2846394","2.786784","-0.3141218","-2.017172","0.9961479","2.041484","1.008","1","1040232","0"
"1.6539207","baseline","1051824498","1040236","390","1","8121","-106","-13","-10","3","28.04688","0.01477287","-0.0006875008","0.9934121","-0.02720799","-0.03561841","-0.01123094","0.3406329","1.930551","36.31089","-0.03965211","0.8149841","0.2847433","2.786631","-0.3426633","-1.971647","0.9936674","2.001202","1.008","1","1040237","0"
"1.6806427","baseline","1051851723","1040263","396","12","8119","-143","-11","-10","0","28.09375","0.01581118","-0.002015721","0.9920241","0.001815269","-0.004501244","-0.01985085","0.3410891","1.931211","36.31061","-0.1164207","0.9131183","0.2851844","2.787304","-0.4016051","-1.874186","0.9926659","1.909937","1.009","1","1040264","0"
"1.6859968","baseline","1051855757","1040268","414","-49","8145","-125","-8","-8","1","28.23438","0.01442017","-2.761418E-05","0.9944492","0.00714482","-0.09183832","-0.01895131","0.3411019","1.931004","36.31044","-0.001591007","0.8307685","0.2851973","2.787097","-0.2867883","-1.956329","0.9945537","1.936951","1.008","1","1040269","0"
"1.6904275","baseline","1051860799","1040272","392","1","8167","-86","-11","-12","3","28.0625","0.01414049","-0.0001978239","0.9953284","-0.0452973","-0.007628543","-0.05657052","0.3412216","1.930917","36.31035","-0.00846542","0.797245","0.2853422","2.786966","-0.2938076","-1.989721","0.9956236","2.011296","1.008","1","1040273","0"
"1.6947788","baseline","1051864832","1040276","404","8","8120","-161","-10","-12","2","28.15625","0.01563202","-0.0007413098","0.9947761","-0.00813799","-0.03738617","-0.04931387","0.3412415","1.930627","36.3103","-0.04375573","0.9141108","0.2853369","2.78672","-0.3290926","-1.872609","0.9943375","1.901306","1.008","1","1040277","0"
"1.699291","baseline","1051869874","1040281","404","46","8128","-137","-12","-9","2","28.15625","0.0156436","-0.002873389","0.9936539","-0.01170781","0.006367302","-0.01306418","0.3413046","1.930778","36.31021","-0.1551413","0.9001708","0.2853927","2.786878","-0.440534","-1.886707","0.9931022","1.937455","1.008","1","1040282","0"
"1.7275347","baseline","1051898108","1040309","414","-20","8157","-119","-10","-9","2","28.23438","0.01455747","-0.001765929","0.9944686","-0.004051431","0.04007427","-0.01583851","0.3408436","1.931732","36.31058","-0.06551552","0.8727717","0.2849367","2.787823","-0.3504522","-1.915052","0.9947843","1.946854","1.008","1","1040310","0"
"1.7322444","baseline","1051902141","1040313","394","8","8157","-109","-12","-10","3","28.0625","0.01475501","-0.0007983256","0.995275","-0.0509747","0.03891647","-0.04739248","0.3409649","1.931941","36.31042","-0.04595783","0.8493506","0.2850603","2.788033","-0.3310181","-1.938683","0.9953846","1.966739","1.009","1","1040314","0"
"1.7366502","baseline","1051907183","1040318","400","2","8103","-126","-14","-10","1","28.125","0.01483476","-0.000718788","0.9937336","0.0006170273","-0.02446107","-0.004835116","0.3410209","1.931814","36.31046","-0.04144321","0.8249096","0.2851006","2.787914","-0.3166361","-1.963005","0.993398","1.988378","1.008","1","1040319","0"
"1.7411769","baseline","1051911217","1040322","402","57","8141","-133","-7","-8","1","28.15625","0.01428304","-0.002779588","0.993181","0.01767637","-0.1288709","-0.006523096","0.3410017","1.931646","36.31044","-0.1603517","0.8239167","0.285097","2.787739","-0.4454487","-1.963822","0.9932876","2.013708","1.008","1","1040323","0"
"1.758569","baseline","1051929368","1040340","420","-2","8133","-113","-13","-12","4","28.28125","0.01471414","-0.0008277851","0.9940467","-0.08212573","0.06106617","-0.06829535","0.3411895","1.931513","36.3098","-0.05576405","0.8206081","0.2853216","2.787589","-0.3410857","-1.96698","0.9942221","1.996335","1.008","1","1040341","0"
"1.7636702","baseline","1051934410","1040345","388","3","8107","-122","-9","-11","1","28.03125","0.01463259","-0.002212504","0.9925764","-0.007103592","-0.02427842","-0.05083752","0.3413034","1.931462","36.30959","-0.127715","0.8472071","0.2853873","2.78749","-0.4062909","-1.940283","0.9924124","1.982365","1.008","1","1040346","0"
"1.7906481","baseline","1051961636","1040372","384","-17","8150","-116","-4","-4","0","28","0.01474662","-0.0007796832","0.9938289","0.01889359","-0.09695175","0.06810917","0.3413261","1.931955","36.31021","-0.04494994","0.850103","0.2854214","2.788047","-0.3265652","-1.925638","0.994301","1.953132","1.008","1","1040373","0"
"1.7955504","baseline","1051965670","1040376","392","-25","8158","-86","-11","-15","3","28.09375","0.01371189","0.0003027262","0.9952487","0.001016133","-0.02937345","-0.05478904","0.3412762","1.931624","36.31039","0.01742774","0.7893339","0.2853715","2.787717","-0.2679438","-1.998383","0.9953433","2.016266","1.008","1","1040377","0"
"1.8002226","baseline","1051970711","1040381","404","19","8108","-115","-16","-13","3","28.15625","0.01445823","-0.0005838245","0.9936714","-0.02689784","0.0254301","-0.05045539","0.3413533","1.93166","36.31033","-0.05623968","0.8108943","0.2854799","2.787815","-0.3417196","-1.97692","0.9936522","2.006237","1.008","1","1040382","0"
"1.8046933","baseline","1051974744","1040385","400","17","8103","-148","-11","-8","1","28.125","0.01512448","-0.002707713","0.9926658","-0.006655216","-0.03001904","0.04384114","0.3414662","1.931763","36.31038","-0.1562863","0.8729006","0.2855615","2.787855","-0.4418479","-1.914955","0.9927847","1.965269","1.009","1","1040387","0"
"1.8094123","baseline","1051979786","1040390","394","25","8166","-126","-13","-11","0","28.07813","0.01564612","-0.003057438","0.9931345","0.04434602","-0.0218319","-0.03479145","0.3413043","1.931646","36.31038","-0.1449604","0.8794289","0.2853535","2.787707","-0.4303139","-1.908278","0.9939564","1.956194","1.009","1","1040391","0"
"1.8361265","baseline","1052007013","1040417","394","-11","8162","-118","-17","-12","4","28.07813","0.01546278","-0.0001240259","0.994877","-0.02463504","0.01286097","-0.01603407","0.3412948","1.93251","36.31046","0.01628398","0.8425813","0.285411","2.788635","-0.269127","-1.946054","0.9953325","1.964575","1.008","1","1040418","0"
"1.8411621","baseline","1052011046","1040421","394","24","8134","-145","-17","-6","2","28.125","0.01516104","-0.0006218132","0.9946124","-0.04241751","0.04503623","0.02799681","0.341522","1.932743","36.31064","-0.03582026","0.8733013","0.2856174","2.788836","-0.3214376","-1.915534","0.9947281","1.942317","1.009","1","1040423","0"
"1.8456677","baseline","1052016088","1040426","394","39","8154","-121","-9","-7","2","28.07813","0.01416627","-0.001936877","0.994559","-0.001116094","-0.09160849","0.0006645266","0.3415536","1.932549","36.31059","-0.1318561","0.836383","0.2856674","2.788551","-0.4175236","-1.952168","0.9942915","1.996318","1.009","1","1040427","0"
"1.8502212","baseline","1052021130","1040431","394","45","8163","-109","-18","-11","3","28.07813","0.01427551","-0.003366123","0.9932648","-0.0169","0.04530692","-0.01781121","0.3416268","1.932356","36.31068","-0.1900523","0.7827555","0.2857479","2.788544","-0.4758002","-2.005788","0.9940246","2.061449","1.009","1","1040432","0"
"1.8661523","baseline","1052036256","1040447","408","34","8140","-122","-8","-8","1","28.1875","0.01386605","-0.002154474","0.9938064","0.0142265","-0.02701701","-0.001782021","0.3415226","1.932378","36.31062","-0.1242114","0.7993639","0.2856179","2.788471","-0.4098293","-1.989107","0.9939054","2.030889","1.008","1","1040448","0"
"1.8709818","baseline","1052041298","1040451","398","46","8143","-136","-15","-6","6","28.10938","0.01529601","-0.002604477","0.9926599","-0.04063279","-0.003811918","0.05473763","0.3414927","1.932221","36.31079","-0.1855957","0.8863755","0.2856338","2.788314","-0.4712296","-1.901939","0.9934061","1.959446","1.009","1","1040452","0"
"1.8817318","baseline","1052052390","1040462","414","22","8156","-131","-11","-7","3","28.23438","0.01392084","-0.0002026141","0.995201","-0.01308477","-0.04898809","0.002723407","0.3414955","1.931933","36.31067","-0.03658535","0.8408113","0.2856165","2.787996","-0.3222018","-1.947185","0.9947723","1.973662","1.009","1","1040463","0"
"1.8971111","baseline","1052067516","1040477","388","-14","8150","-141","-11","-7","0","28.14063","0.01527853","-0.0003928024","0.9946846","0.003275905","0.01319613","0.03382267","0.3416248","1.932052","36.31039","-0.02262619","0.8800042","0.2857201","2.788144","-0.3083463","-1.90814","0.994802","1.932893","1.009","1","1040478","0"
"1.9019482","baseline","1052072558","1040482","396","-5","8160","-98","-11","-3","4","28.09375","0.01382711","-3.201507E-05","0.9958345","-0.02913066","-0.04738266","0.05010775","0.3416668","1.932036","36.31046","-0.001842001","0.7954977","0.2857621","2.788118","-0.295152","-1.973723","0.9956084","1.99567","1.009","1","1040483","0"
"1.9123936","baseline","1052082641","1040492","384","11","8149","-134","-9","-11","0","28.09375","0.01530603","-0.002225705","0.9928581","0.04242413","-0.07362005","-0.03413282","0.3417535","1.932175","36.31041","-0.1284406","0.8832073","0.2858488","2.788268","-0.4142894","-1.905061","0.9929785","1.949587","1.008","1","1040494","0"
"1.9273443","baseline","1052097765","1040507","384","14","8122","-111","-11","-10","4","28","0.01544394","-0.001155634","0.9935995","-0.03570061","-0.05431711","-0.009774478","0.3416094","1.931933","36.31021","-0.0917966","0.8731906","0.2857047","2.788026","-0.3775013","-1.914835","0.9937052","1.951692","1.009","1","1040508","0"
"1.9320464","baseline","1052101799","1040511","400","12","8108","-141","-14","-9","1","28.125","0.01604533","-0.002461967","0.9920225","0.01829834","-0.02086642","-0.01661265","0.3415684","1.931854","36.31015","-0.1421944","0.9266388","0.2856637","2.787947","-0.4278581","-1.861308","0.9921553","1.909851","1.009","1","1040513","0"
"1.9423449","baseline","1052112891","1040522","386","4","8164","-90","-12","-10","2","28.01563","0.01530776","-0.0009709533","0.995498","0.02003672","-0.06614491","-0.005585259","0.3412639","1.931417","36.30999","-0.0492486","0.8337305","0.2853592","2.78751","-0.3346078","-1.953779","0.9956037","1.982225","1.009","1","1040523","0"
"1.9573015","baseline","1052128014","1040537","390","10","8159","-104","-12","-12","3","28.04688","0.01565322","-0.00247873","0.9941525","0.0009409208","-0.01201705","-0.0317967","0.3408857","1.930739","36.31011","-0.1168518","0.8984596","0.2849956","2.786846","-0.4018475","-1.888386","0.9942749","1.930669","1.008","1","1040538","0"
"1.9621181","baseline","1052132048","1040541","410","14","8160","-118","-16","-9","3","28.1875","0.01548","-0.001316045","0.9948052","-0.0234185","0.0433439","-0.01936192","0.3409719","1.930888","36.31022","-0.07579751","0.8914972","0.2850672","2.78698","-0.3608648","-1.895483","0.9949265","1.929528","1.008","1","1040542","0"
"1.9733286","baseline","1052144148","1040553","394","22","8110","-122","-19","-8","2","28.07813","0.01546991","-0.003108121","0.992713","0.008983865","0.02012086","0.0011456","0.3411965","1.930713","36.3102","-0.1793889","0.89279","0.2852918","2.786851","-0.4597409","-1.895606","0.9924059","1.950559","1.008","1","1040554","0"
"1.988789","baseline","1052159273","1040568","398","10","8118","-147","-12","-8","2","28.10938","0.01509535","-0.0008318449","0.9939026","-0.01531859","-0.06125422","0.02662087","0.3408844","1.930151","36.31012","-0.06046222","0.8719901","0.2849872","2.786214","-0.3454494","-1.914224","0.9936107","1.945145","1.008","1","1040569","0"
"1.9934955","baseline","1052164315","1040573","404","40","8121","-137","-18","-8","4","28.15625","0.01498056","-0.003071317","0.9934328","-0.06186849","0.09715294","0.04430183","0.3410869","1.930339","36.31036","-0.1771362","0.8639272","0.2851822","2.786431","-0.4623185","-1.922504","0.9929066","1.975921","1.008","1","1040574","0"
"2.0043416","baseline","1052175407","1040584","390","-4","8165","-109","-16","-12","2","28.04688","0.01506963","-0.0005341953","0.9954698","-0.003982316","0.05552141","-0.05234372","0.3412","1.931049","36.31039","0.005329959","0.8287783","0.2852953","2.787142","-0.2799653","-1.958364","0.9957311","1.978274","1.008","1","1040585","0"
"2.0097114","baseline","1052180449","1040589","398","12","8105","-143","-18","-12","2","28.10938","0.01562134","-0.000631556","0.9939952","-0.02212054","0.1025761","-0.05482218","0.3413292","1.931381","36.31025","-0.03640409","0.882944","0.2854515","2.787586","-0.3328424","-1.904642","0.9936719","1.933506","1.008","1","1040590","0"
"2.0204167","baseline","1052191541","1040600","404","-19","8158","-101","-16","-10","3","28.15625","0.01409838","-0.001694008","0.9937914","-0.0393547","0.06444157","-0.03792603","0.3415293","1.93216","36.30988","-0.09766576","0.8127686","0.2856247","2.788253","-0.3832904","-1.966202","0.9940463","1.994613","1.009","1","1040601","0"
"2.0363334","baseline","1052206666","1040615","390","16","8110","-138","-12","-11","1","28.21875","0.01576688","-0.001784441","0.9921911","0.01195588","-0.02317093","-0.05493823","0.3419586","1.933174","36.30998","-0.1030455","0.9104072","0.2860539","2.789266","-0.3890994","-1.878859","0.9923179","1.918726","1.008","1","1040617","0"
"2.0443102","baseline","1052214733","1040623","398","-7","8158","-152","-6","-8","0","28.10938","0.01659978","-0.0003173225","0.9941581","0.03265161","-0.1033338","0.005700074","0.3418061","1.932896","36.30987","-0.01984731","0.9754081","0.2858551","2.788988","-0.3057024","-1.81358","0.9944738","1.839165","1.008","1","1040624","0"
"2.0490444","baseline","1052218766","1040628","390","7","8166","-100","-5","-11","-1","28.04688","0.015031","-4.020685E-05","0.9953896","0.05288275","-0.1541738","-0.05729596","0.3416007","1.932506","36.30972","-0.002314353","0.865136","0.285696","2.788599","-0.2880103","-1.923463","0.9955031","1.945403","1.008","1","1040629","0"
"2.0666228","baseline","1052236917","1040645","404","9","8164","-139","-11","-12","0","28.0625","0.01554693","-0.0005863783","0.9956024","0.06062235","0.01804557","-0.02739736","0.3411015","1.93198","36.30918","-0.03374539","0.8946351","0.2851968","2.788073","-0.3189422","-1.893438","0.995724","1.920112","1.009","1","1040647","0"
"2.0714678","baseline","1052241959","1040650","404","7","8137","-140","-14","-4","2","28.15625","0.01409124","-1.551499E-05","0.9956036","-0.002777861","-0.006682791","0.05958224","0.3410077","1.931859","36.30928","-0.01301771","0.850076","0.2851031","2.787952","-0.2981208","-1.937876","0.9949002","1.960673","1.008","1","1040651","0"
"2.0819206","baseline","1052252041","1040660","396","39","8146","-135","-12","-8","2","27.98438","0.0151399","-0.003024727","0.993409","-0.01255159","-0.01980387","0.004016018","0.3408037","1.931574","36.30949","-0.1744534","0.8731362","0.284899","2.787667","-0.4593524","-1.914531","0.993529","1.968866","1.008","1","1040661","0"
"2.0978823","baseline","1052268175","1040676","400","43","8147","-132","-12","-8","0","28.125","0.01476539","-0.00267204","0.9939382","0.02195073","-0.02150287","0.001790622","0.3411415","1.931098","36.30963","-0.1540299","0.8510886","0.2852368","2.787191","-0.4392667","-1.936102","0.9940515","1.985308","1.009","1","1040677","0"
"2.1026255","baseline","1052273217","1040681","396","35","8148","-140","-15","-13","2","28.09375","0.01538676","-0.002572773","0.9928989","-0.01714985","0.03637685","-0.0506616","0.3411379","1.931188","36.30963","-0.1484629","0.8878273","0.2852332","2.787328","-0.4346234","-1.912305","0.9935442","1.961073","1.008","1","1040682","0"
"2.11337","baseline","1052284309","1040692","390","14","8135","-163","-14","-7","3","28.04688","0.0154085","2.672989E-05","0.9951349","0.008068779","-0.01884822","0.02942017","0.3407441","1.930905","36.30972","-0.007628866","0.9187916","0.2848405","2.786996","-0.2924694","-1.868205","0.9944469","1.89096","1.008","1","1040693","0"
"2.128371","baseline","1052298426","1040707","396","10","8152","-148","-9","-7","3","28.09375","0.01536012","-0.0005985991","0.9945318","0.01485163","-0.1299613","0.01767546","0.3406286","1.931214","36.30969","-0.03448578","0.8848386","0.2847239","2.787307","-0.3192097","-1.902469","0.9946505","1.909855","1.008","1","1040708","0"
"2.1334038","baseline","1052303468","1040711","396","-16","8157","-108","-14","-7","1","28.09375","0.01468645","0.0001385318","0.9949778","0.006010683","-0.02588692","0.05751991","0.3405613","1.930871","36.30976","0.007977349","0.8642591","0.2846566","2.786964","-0.2766793","-1.922705","0.995091","1.94251","1.009","1","1040712","0"
"2.1433629","baseline","1052313552","1040721","396","-2","8107","-140","-10","-6","2","28.09375","0.01582269","-0.001945805","0.9920955","-0.009067951","-0.0540116","0.03536203","0.3406557","1.930933","36.31007","-0.1123745","0.9286743","0.284751","2.787026","-0.3971255","-1.858352","0.9922277","1.900311","1.008","1","1040722","0"
"2.1583975","baseline","1052328678","1040736","388","15","8146","-102","-14","-10","2","28.07813","0.01429665","-0.001033549","0.994025","-0.01067681","0.01883148","-0.04248257","0.3406776","1.930968","36.31006","-0.05957396","0.8240041","0.2847729","2.78706","-0.3443469","-1.963056","0.9941283","1.993029","1.008","1","1040738","0"
"2.1633318","baseline","1052333719","1040741","378","6","8096","-129","-13","-11","2","27.95313","0.0149035","-0.002136928","0.9924917","-0.006194182","0.04645834","-0.01785181","0.3407104","1.931274","36.31007","-0.117245","0.8682854","0.2848057","2.787366","-0.4020507","-1.919081","0.9923078","1.960744","1.009","1","1040742","0"
"2.1744576","baseline","1052344812","1040752","416","-11","8174","-102","-11","-11","2","28.26563","0.01435236","-8.688828E-05","0.9960985","-0.00139009","-0.02869038","-0.04274908","0.3404991","1.931333","36.30999","-0.00499783","0.8254936","0.2845944","2.787426","-0.2895923","-1.961932","0.9962019","1.983189","1.008","1","1040753","0"
"2.1793092","baseline","1052349854","1040757","394","18","8124","-92","-16","-13","3","28.07813","0.01461794","-0.001232752","0.9937041","-0.01984733","0.04894681","-0.05939756","0.3405335","1.931414","36.30993","-0.08323246","0.8205959","0.2846348","2.787582","-0.3678673","-1.966987","0.9939924","2.00109","1.008","1","1040758","0"
"2.189905","baseline","1052359938","1040767","410","-16","8165","-100","-12","-8","1","28.15625","0.01417815","-0.0006209578","0.9951313","-0.009508286","-0.01086242","-0.02364754","0.34068","1.932","36.30973","-0.03575233","0.8162674","0.2847753","2.788093","-0.3205276","-1.971826","0.9952325","1.997707","1.008","1","1040769","0"
"2.2054837","baseline","1052376070","1040783","388","25","8105","-129","-13","-10","2","28.03125","0.01539569","-0.002766919","0.9926021","-0.008041069","0.06568667","-0.009798551","0.3409585","1.932517","36.30981","-0.1746395","0.8763075","0.285044","2.788646","-0.4596835","-1.912339","0.9925796","1.966812","1.008","1","1040784","0"
"2.2103586","baseline","1052380103","1040788","400","-28","8153","-126","-8","-9","1","28.125","0.01434476","-0.001663833","0.9941737","0.02139266","-0.03750211","-0.006005791","0.3408704","1.932651","36.30977","-0.0958892","0.8266522","0.2849657","2.788744","-0.3808549","-1.962092","0.9942786","1.978754","1.009","1","1040789","0"
"2.2209863","baseline","1052391195","1040798","394","21","8138","-96","-13","-11","4","28.15625","0.01428933","-0.001334924","0.9940253","-0.04644916","-0.02381465","-0.0171567","0.3408158","1.932044","36.30992","-0.07694521","0.8235816","0.2849111","2.788137","-0.3618563","-1.964556","0.9941289","1.997603","1.009","1","1040800","0"
"2.2370842","baseline","1052408337","1040815","398","-22","8150","-95","-17","-9","3","28.10938","0.01412849","1.397531E-05","0.9950869","-0.02683127","0.07059623","-0.03244078","0.3410296","1.931971","36.3099","0.0008046798","0.8134449","0.2851249","2.788064","-0.2843202","-1.978741","0.9950168","2.00021","1.008","1","1040816","0"
"2.242359","baseline","1052412371","1040819","392","10","8107","-115","-10","-14","4","28.125","0.01454254","-0.001115369","0.9928368","-0.02093228","-0.01202445","-0.08749804","0.3410738","1.932156","36.30976","-0.064367","0.8391774","0.2851691","2.788249","-0.3495361","-1.949071","0.9929439","1.980165","1.008","1","1040820","0"
"2.2522182","baseline","1052422455","1040829","388","-13","8163","-98","-13","-9","0","28.03125","0.01451792","-0.0009179421","0.994011","0.03760013","0.01021608","0.00889753","0.3412063","1.932519","36.30972","-0.05291108","0.8279191","0.2853016","2.788611","-0.3382127","-1.960692","0.9941152","1.989649","1.008","1","1040830","0"
"2.2672043","baseline","1052437580","1040844","386","23","8124","-140","-16","-10","3","28.01563","0.0150375","-0.001685736","0.9928918","-0.01932224","0.04203805","-0.0153707","0.3411929","1.932541","36.30999","-0.09727696","0.8676858","0.2852882","2.788634","-0.3825652","-1.920948","0.9930071","1.958672","1.009","1","1040845","0"
"2.272298","baseline","1052442622","1040849","404","10","8164","-100","-15","-11","4","28.15625","0.01488488","-0.002125789","0.9935474","-0.03055723","0.02927808","-0.04566971","0.3412413","1.932619","36.30989","-0.08076737","0.8321949","0.2853723","2.788713","-0.3661396","-1.956519","0.9942701","1.990483","1.009","1","1040850","0"
"2.2826345","baseline","1052453715","1040860","386","2","8107","-120","-15","-10","1","28.01563","0.01395048","-0.001037832","0.9944298","0.01521163","-0.009345319","0.008865124","0.3413405","1.932364","36.30982","-0.05979643","0.8037277","0.2854358","2.788463","-0.344694","-1.987907","0.99392","2.01757","1.008","1","1040861","0"
"2.2987131","baseline","1052468839","1040875","416","23","8165","-88","-16","-14","2","28.125","0.01432902","-0.0005419364","0.9950689","0.01454567","0.05026259","-0.07786945","0.3408029","1.932234","36.3097","-0.03120454","0.8250036","0.2848982","2.788327","-0.3161027","-1.963324","0.9951722","1.988608","1.009","1","1040877","0"
"2.3034219","baseline","1052473881","1040880","404","2","8128","-140","-15","-6","3","28.15625","0.014055","-0.0006154661","0.9950994","-0.02575505","0.05345862","0.04506609","0.3408618","1.932461","36.30976","-0.03653007","0.8363646","0.2849942","2.788632","-0.3215243","-1.952267","0.9945307","1.978566","1.009","1","1040881","0"
"2.314206","baseline","1052484973","1040891","398","-10","8162","-105","-15","-10","3","28.10938","0.01487559","-0.002204651","0.9935744","-0.009798035","0.01775852","-0.01829034","0.3410093","1.933294","36.3099","-0.1271339","0.8577545","0.2851077","2.78941","-0.368601","-1.947448","0.994063","1.982024","1.009","1","1040892","0"
"2.3293524","baseline","1052500099","1040906","404","51","8145","-118","-18","-8","5","28.15625","0.01412733","-0.002329468","0.9942992","-0.04288818","0.1246756","0.09149304","0.3412489","1.933855","36.31001","-0.192203","0.9528686","0.2853442","2.789948","-0.4775472","-1.837079","0.9941849","1.898133","1.009","1","1040907","0"
"2.3346356","baseline","1052505141","1040911","396","8","8173","614","26","-88","5","28.09375","-0.0002312167","-0.0005983352","0.9941673","-0.02291786","-0.4195298","-0.789314","0.3412743","1.933704","36.31002","-0.1761492","-0.6689287","0.2853282","2.788876","-0.4614775","-3.457805","0.995068","3.488463","1.009","1","1040912","0"
"2.3397402","baseline","1052510181","1040916","398","254","8257","1148","157","-262","2","28.10938","-0.06184296","-0.009103578","0.9990618","-0.05224555","-3.72906","-5.304687","0.3407088","1.922247","36.29305","-0.6719822","-4.552606","0.2845103","2.77373","-0.9564925","-7.326336","1.004598","7.38851","1.007","1","1040917","0"
"2.3531192","baseline","1052523289","1040929","390","261","8175","-1703","481","-156","-62","28.04688","0.04069716","-0.003504838","1.000216","1.520582","-15.27381","-6.327957","0.3236675","1.752921","36.1371","-0.2007682","2.329973","0.2677628","2.609014","-0.4685311","-0.2790413","1.00105","0.5453305","1.008","1","1040931","0"
"2.3597905","baseline","1052530347","1040936","400","-647","8475","-835","194","11","-77","28.125","0.08247487","0.01924922","0.9993828","2.261011","-7.743508","-0.1568593","0.3084235","1.670661","36.11803","0.9675778","5.914711","0.2525188","2.526754","0.715059","3.387957","1.006901","3.462595","1.008","1","1040937","0"
"2.390531","baseline","1052561604","1040967","388","313","8298","50","-89","71","-82","28.03125","0.0004471067","-0.02867355","1.007884","2.472741","1.864011","3.170254","0.2436441","1.681423","36.10273","-1.629582","0.02540665","0.185291","2.539595","-1.963344","-2.432619","1.010297","3.126076","1.009","1","1040968","0"
"2.3955734","baseline","1052565638","1040971","388","406","8352","8","-84","-63","-100","28.03125","-0.001877028","-0.03779928","1.016463","2.979854","2.149563","-0.7145209","0.2299005","1.692286","36.10727","-2.12968","-0.1057307","0.1739958","2.548379","-2.303676","-2.65411","1.017168","3.514431","1.008","1","1040972","0"
"2.4001193","baseline","1052570680","1040976","398","-208","8153","-26","-71","-92","-98","28.10938","0.004309031","-0.01553417","1.009848","3.126051","1.897822","-2.229676","0.2169617","1.700456","36.0998","-0.5669895","0.1554941","0.1579004","2.558416","-0.7248899","-2.402921","1.007797","2.50988","1.008","1","1040977","0"
"2.4048668","baseline","1052575722","1040981","414","25","8176","137","-30","38","-87","28.23438","-0.01114751","-0.005047855","1.002181","2.768205","1.035202","-0.08226806","0.202187","1.707968","36.09322","-0.2230896","-0.3483667","0.1435392","2.564796","-0.3666288","-2.913162","1.001338","2.936142","1.008","1","1040982","0"
"2.4101187","baseline","1052580764","1040986","400","-245","7981","-283","40","128","-85","28.125","0.01139732","0.01045265","0.991721","2.733756","-0.8485745","3.311071","0.1887491","1.707677","36.1041","0.6038698","0.8687972","0.1303227","2.562474","0.7149459","-1.693676","0.9886863","1.838393","1.008","1","1040987","0"
"2.4371092","baseline","1052607990","1041013","398","18","8041","237","-107","117","-80","28.04688","-0.0006786338","0.004041249","0.980478","2.297645","3.052848","3.160395","0.1425957","1.74401","36.14193","0.2361554","-0.03965669","0.08669101","2.600102","0.1494644","-2.639759","0.9804866","2.643987","1.009","1","1041014","0"
"2.4425725","baseline","1052613032","1041018","412","-36","8132","-214","-80","169","-81","28.21875","0.0001715226","0.004237402","0.9851657","2.496539","2.330969","4.837358","0.1335096","1.754395","36.15949","0.2689197","0.4187965","0.07531738","2.612758","0.1936024","-2.193961","0.9865295","2.202487","1.009","1","1041019","0"
"2.4472199","baseline","1052617094","1041022","388","-172","8134","-729","-115","169","-72","28.0625","0.03941311","0.01079213","0.9882599","2.36792","2.686346","5.555393","0.122405","1.766445","36.18705","0.625664","2.283685","0.06650031","2.622538","0.5591637","-0.3388526","0.9891043","0.6538235","0.98","1","1041024","0"
"2.4516411","baseline","1052622108","1041027","388","-48","8064","-722","-163","123","-56","28.03125","0.06400492","0.007824484","0.9884531","1.974367","3.82579","4.567338","0.1147145","1.779927","36.20723","0.5153615","3.84787","0.05712737","2.64029","0.4582341","1.20758","0.990311","1.291599","1.008","1","1041028","0"
"2.4825832","baseline","1052653367","1041058","408","346","8023","-264","-235","117","-60","28.1875","0.04878991","-0.02323052","0.985423","1.354423","6.456804","5.733003","0.1147807","1.942045","36.38284","-1.5542","2.52693","0.05747997","2.804837","-1.61168","-0.2779071","0.986443","1.635464","1.009","1","1041059","0"
"2.4876682","baseline","1052658409","1041063","400","413","8200","189","-208","-30","-118","28.125","0.01478755","-0.03684236","0.9898689","2.920285","6.411769","1.144473","0.104251","1.975616","36.39301","-2.131533","0.85528","0.04507829","2.837867","-2.283759","-2.458559","0.9933397","3.355602","1.009","1","1041064","0"
"2.4921392","baseline","1052662443","1041067","402","359","8315","770","-109","-107","-167","28.14063","-0.02662351","-0.04099892","1.000986","4.347714","4.406651","-1.848886","0.08881983","2.000802","36.38731","-2.330082","-2.263391","0.02802981","2.856894","-2.358112","-5.120286","1.005465","5.6372","1.008","1","1041068","0"
"2.4966948","baseline","1052667485","1041072","394","14","8418","821","41","-57","-219","28.07813","-0.0696064","-0.02828773","1.015471","6.09215","0.1513917","-2.105968","0.06089252","2.006847","36.37757","-1.595663","-3.919744","0.004987834","2.86294","-1.308688","-6.988055","1.02071","7.109541","1.008","1","1041073","0"
"2.5012843","baseline","1052671518","1041076","398","-171","8500","533","115","19","-238","28.10938","-0.07008243","-0.007966345","1.025256","7.098883","-3.187831","0.3398938","0.02645391","1.996957","36.37376","-0.1921767","-3.81034","-0.02945077","2.85305","-0.1627259","-6.66339","1.030969","6.665377","1.009","1","1041077","0"
"2.5298072","baseline","1052700761","1041105","400","665","8689","-680","-47","-76","29","28.125","0.08561805","-0.05736167","1.050328","-0.3721459","0.9977325","-1.952447","-0.08825032","1.949818","36.38367","-3.3149","4.506707","-0.1436716","2.806834","-3.171228","1.699874","1.057252","3.598091","1.008","1","1041106","0"
"2.5348577","baseline","1052704794","1041109","392","467","8782","-361","-31","-94","51","27.96875","0.06118684","-0.06091161","1.060857","-1.300173","0.6609965","-2.591208","-0.08403483","1.953399","36.37198","-3.286164","3.295564","-0.1399395","2.809492","-3.146224","0.4860723","1.064365","3.183551","1.008","1","1041110","0"
"2.5391352","baseline","1052709836","1041114","414","477","8680","632","-70","-155","82","28.23438","0.007443102","-0.06235881","1.062376","-2.030803","1.388019","-3.773688","-0.07765055","1.95783","36.35873","-3.287215","-0.3603595","-0.1314844","2.815359","-3.15573","-3.175719","1.063605","4.477033","1.008","1","1041115","0"
"2.5438472","baseline","1052713869","1041118","394","339","8712","781","-12","-193","118","28.07813","-0.04742919","-0.05339261","1.062324","-3.282612","0.1895586","-5.260466","-0.06489401","1.962439","36.33513","-2.877277","-2.553149","-0.1207987","2.818532","-2.756478","-5.371681","1.064721","6.037643","1.009","1","1041119","0"
"2.5751175","baseline","1052746136","1041150","398","-24","10450","-544","-277","-144","250","28.10938","0.1041497","-0.01658954","1.246599","-7.952011","7.056579","-4.225057","0.1535712","1.951666","36.31172","-0.518389","4.306848","0.1052954","2.815256","-0.6236844","1.491591","1.255323","1.616734","1.008","1","1041151","0"
"2.5805989","baseline","1052751175","1041155","400","-329","10414","283","-296","-41","220","28.125","0.05033749","0.01131927","1.261585","-6.960345","8.480516","-2.363468","0.189767","1.992336","36.2949","0.7748819","1.453566","0.1406567","2.856957","0.6342252","-1.403391","1.264394","1.540048","1.009","1","1041156","0"
"2.5851998","baseline","1052755209","1041159","388","-462","10448","464","-262","127","189","28.03125","-0.0110619","0.03328548","1.267651","-5.905887","7.746935","2.948069","0.2219652","2.033224","36.29926","1.504104","-0.4997951","0.1660605","2.889316","1.338044","-3.389112","1.268136","3.643685","1.008","1","1041160","0"
"2.5897167","baseline","1052760251","1041164","412","63","10041","302","-214","216","159","28.21875","-0.03485427","0.02057687","1.252272","-5.184903","6.674251","5.666139","0.2449114","2.061757","36.31842","0.6124279","-1.583217","0.1942929","2.924229","0.418135","-4.507445","1.247135","4.526798","1.008","1","1041165","0"
"2.5944509","baseline","1052764285","1041168","394","285","9669","-263","-213","285","126","28.07813","-0.00803557","-0.0119402","1.219477","-4.085109","6.04765","8.056179","0.2693062","2.092505","36.35468","-0.5609794","-0.3775188","0.2134015","2.948598","-0.7743808","-3.326117","1.219562","3.415073","1.008","1","1041170","0"
"2.6210621","baseline","1052791508","1041195","406","-1619","9639","575","-591","167","-35","28.125","0.1458985","0.1827759","1.217098","0.6015453","17.3556","5.466808","0.2962632","2.365567","36.55688","8.54049","6.760567","0.2403585","3.22166","8.300132","3.538907","1.239363","9.023085","1.008","1","1041196","0"
"2.6260906","baseline","1052796550","1041200","404","25","9235","-1036","-603","-308","24","28.15625","0.1673215","0.09550071","1.146893","-0.08820921","17.48661","0.1766219","0.2960578","2.437341","36.5769","3.79102","6.714035","0.2401126","3.312378","3.550907","3.401657","1.170057","4.917338","1.008","1","1041201","0"
"2.6305548","baseline","1052800583","1041204","396","2406","9159","1992","-380","-149","8","28.09375","0.006700111","-0.07225657","1.167737","-0.1224246","14.02329","-5.456212","0.2952198","2.523105","36.55297","-3.540802","0.3281143","0.2393151","3.379198","-3.780117","-3.051084","1.169989","4.857818","1.009","1","1041205","0"
"2.6351056","baseline","1052805624","1041209","406","4353","9370","789","-543","-129","-130","28.17188","0.07845464","-0.2322513","1.164002","2.529678","14.83423","-5.965086","0.2879594","2.579907","36.52567","-13.52188","3.295264","0.2282491","3.451392","-13.75013","-0.1561289","1.204984","13.75101","1.008","1","1041210","0"
"2.640384","baseline","1052810666","1041214","406","1641","8125","114","-521","-468","-189","28.17188","-0.002012799","-0.2996646","1.094046","5.614795","15.64877","-11.56054","0.2610706","2.673293","36.46881","-14.8972","-0.2947606","0.1987037","3.529385","-15.0959","-3.824146","1.130781","15.57274","1.008","1","1041215","0"
"2.667944","baseline","1052838897","1041242","414","-1934","8906","610","-260","-592","-365","28.23438","-0.05958821","0.1715048","1.06514","12.33035","7.634338","-19.03527","-0.1030965","2.971346","35.86981","9.147044","-3.459512","-0.1722873","3.835003","9.978495","-7.294515","1.086259","12.36043","1.009","1","1041243","0"
"2.672935","baseline","1052842931","1041246","398","-1518","8739","456","-273","-532","-365","28.09375","-0.0822435","0.1837327","1.066996","11.24757","7.861689","-16.93223","-0.1669759","3.010273","35.78252","9.770296","-4.343931","-0.2228805","3.866366","9.993176","-8.210298","1.085819","12.93339","1.008","1","1041247","0"
"2.6774106","baseline","1052847973","1041251","392","490","8478","2101","-129","-634","-383","28.0625","-0.1528279","0.09491498","1.052798","11.53971","5.488817","-18.81447","-0.2180218","3.037329","35.70815","3.546808","-9.177141","-0.2870114","3.898092","3.833819","-13.07523","1.06483","13.62571","1.008","1","1041252","0"
"2.6836449","baseline","1052854022","1041257","400","763","8205","1639","-28","-389","-447","28.125","-0.2035189","-0.01070824","1.028473","13.32203","1.00472","-13.00899","-0.3136296","3.056745","35.59062","-1.253644","-11.22553","-0.3695343","3.912838","-0.8841096","-15.13837","1.042343","15.16417","1.007","1","1041258","0"
"2.7150294","baseline","1052885271","1041288","394","-1125","6383","-1113","315","-21","-561","28.07813","0.03206165","0.1501527","0.8264167","17.20375","-8.921347","-1.256343","-0.869272","2.944161","35.35279","10.29781","2.185979","-0.9251767","3.800254","11.22298","-1.614275","0.8405584","11.33848","1.009","1","1041290","0"
"2.7199907","baseline","1052890313","1041293","396","-677","6073","-1140","241","-55","-569","28.09375","0.0908578","0.1195045","0.7917835","17.37341","-8.095708","-1.549545","-0.9568074","2.900086","35.34923","8.354478","6.901917","-1.012712","3.756179","9.36719","3.145738","0.7977545","9.881291","1.008","1","1041294","0"
"2.7246124","baseline","1052895355","1041298","388","-424","5999","-321","112","-279","-552","28.03125","0.08442277","0.09305585","0.7592374","17.07949","-5.404115","-6.054486","-1.027403","2.873323","35.3321","6.494884","5.746635","-1.100943","3.724505","7.595827","2.02213","0.7627789","7.860381","1.008","1","1041299","0"
"2.7293288","baseline","1052899385","1041302","388","-751","5527","130","89","-309","-546","28.03125","0.03714194","0.07622424","0.722726","16.86418","-3.347632","-9.018641","-1.115661","2.852783","35.29052","6.020596","2.925727","-1.171566","3.708876","7.192162","-0.783149","0.7276829","7.234674","1.006","1","1041304","0"
"2.7340868","baseline","1052904425","1041307","396","-1211","5217","558","172","-157","-522","28.09375","-0.02687876","0.1091001","0.6762644","16.18102","-5.416266","-5.474977","-1.200969","2.831039","35.25423","9.16443","-2.247053","-1.256873","3.687132","10.4213","-5.934185","0.6855354","11.99242","1.008","1","1041308","0"
"2.7390248","baseline","1052909466","1041312","392","-1246","4843","350","365","25","-517","28.0625","-0.04754566","0.1323355","0.6331806","15.84106","-10.46388","-0.1059282","-1.282116","2.788092","35.24388","11.80496","-4.203796","-1.33802","3.644185","13.14298","-7.847981","0.648607","15.3078","1.009","1","1041313","0"
"2.7610155","baseline","1052931650","1041334","400","-2538","3850","1640","517","141","-208","28.125","-0.1754522","0.2514896","0.5018811","7.730102","-13.39229","1.402272","-1.546453","2.562195","35.23691","27.56912","-17.82351","-1.609233","3.403346","29.17835","-21.22685","0.5894485","36.08262","1.008","1","1041335","0"
"2.7657681","baseline","1052935682","1041338","396","-2223","4253","1187","762","411","-111","28.09375","-0.1779772","0.2728937","0.5029052","4.571147","-21.07627","9.878408","-1.573397","2.47185","35.27311","28.48578","-17.27849","-1.629302","3.327943","30.11508","-20.60643","0.5992166","36.49032","1.008","1","1041340","0"
"2.7703782","baseline","1052940724","1041343","380","-1920","4478","679","765","387","-70","27.96875","-0.1330029","0.2596009","0.5218211","2.954425","-23.41891","12.09698","-1.586573","2.357859","35.33598","25.92897","-12.2036","-1.642478","3.213952","27.57145","-15.41755","0.599926","31.58933","1.008","1","1041344","0"
"2.7921125","baseline","1052962907","1041365","402","-1281","4900","-579","907","604","284","28.14063","-0.008806749","0.2292705","0.5585715","-7.840166","-26.59131","16.59353","-1.516131","1.930499","35.52616","20.87089","0.8402515","-1.5629","2.759783","22.43379","-1.919532","0.6063182","22.51576","1.008","1","1041366","0"
"2.7973486","baseline","1052967949","1041370","412","-1048","5238","-974","809","454","346","28.21875","0.07129303","0.1753184","0.5977809","-9.723154","-26.23044","15.93572","-1.466768","1.79722","35.61563","16.34547","6.528668","-1.511734","2.628289","16.97544","4.621662","0.6328862","17.59333","1.008","1","1041371","0"
"2.8019659","baseline","1052971982","1041374","394","-1076","5337","-1244","557","224","406","28.07813","0.1227512","0.1541058","0.6275703","-11.86201","-19.07179","8.773104","-1.408426","1.686991","35.67858","13.28961","10.70383","-1.464331","2.543083","14.75394","8.160743","0.6562573","16.8605","1.009","1","1041375","0"
"2.822724","baseline","1052993159","1041395","414","-322","7851","-1686","521","568","497","28.23438","0.1248449","0.02538119","0.8745955","-14.7566","-18.36418","18.74665","-1.115089","1.319453","35.95705","1.882433","8.873536","-1.15525","2.175546","3.037683","6.69799","0.9013783","7.35463","1.008","1","1041396","0"
"2.8273611","baseline","1052997192","1041399","384","-497","8659","-1459","265","325","522","28.04688","0.1584353","0.04315282","0.9591836","-15.67357","-11.05255","12.71938","-1.034731","1.267219","36.01736","2.575949","9.369961","-1.090635","2.123312","3.666585","7.246649","0.9731377","8.121439","1.009","1","1041401","0"
"2.8317909","baseline","1053002234","1041404","400","-156","9118","-1204","160","321","508","28.125","0.1446323","0.03803073","1.030759","-15.62312","-6.819235","10.32746","-0.9697538","1.234723","36.06173","1.780437","7.742445","-1.009592","2.084607","2.79003","5.657837","1.054487","6.308358","1.009","1","1041405","0"
"2.8532652","baseline","1053023410","1041425","392","1464","12060","-1711","-91","524","383","28.0625","0.1709237","-0.135596","1.39972","-12.26039","0.09343922","18.13644","-0.6353196","1.095311","36.49122","-5.533187","6.929953","-0.6912243","1.951404","-4.841963","4.978549","1.416622","6.944822","1.008","1","1041427","0"
"2.8580881","baseline","1053028450","1041430","392","1696","12842","-1649","-153","479","349","28.0625","0.1804567","-0.1668113","1.456431","-11.19469","3.150547","15.48188","-0.5863439","1.104864","36.55664","-6.987237","6.765437","-0.6308855","1.964746","-6.356352","4.800691","1.498908","7.965541","1.008","1","1041431","0"
"2.86254","baseline","1053032484","1041434","400","2525","13311","-575","-120","711","215","28.125","0.1372903","-0.2459718","1.550013","-7.96378","3.736102","19.36026","-0.5359839","1.12517","36.64323","-9.017085","4.999452","-0.5918885","1.981262","-8.425197","3.018189","1.575402","8.949492","1.008","1","1041436","0"
"2.8848496","baseline","1053055676","1041457","394","1923","13755","-581","-417","621","-155","28.07813","0.138859","-0.2470161","1.673122","3.406595","12.2811","18.3269","-0.4658471","1.268124","37.11675","-8.398356","4.693685","-0.5251558","2.136691","-7.777941","2.09177","1.696162","8.054307","1.008","1","1041458","0"
"2.8896948","baseline","1053059709","1041462","412","1636","13609","42","-326","722","-252","28.21875","0.06912917","-0.2248025","1.6713","6.553047","10.59941","21.17992","-0.4889132","1.327141","37.21741","-7.660737","2.347431","-0.5448179","2.183234","-7.115919","0.164197","1.687767","7.117813","1.008","1","1041463","0"
"2.8944361","baseline","1053064744","1041466","396","1353","13248","-33","-308","765","-330","28.09375","0.02980075","-0.1999109","1.653485","8.91431","9.429863","22.97779","-0.5177487","1.367449","37.30732","-6.694005","0.8676696","-0.5823135","2.233138","-6.111692","-1.365468","1.657104","6.26237","1.006","1","1041467","0"
"2.9155243","baseline","1053085905","1041487","376","564","11021","1608","-164","761","-710","27.9375","-0.1357927","-0.08998029","1.430039","20.49215","5.43567","23.03181","-0.8337239","1.579359","37.77698","-3.851519","-5.878506","-0.8896286","2.435452","-2.96189","-8.313958","1.42369","8.825797","1.008","1","1041488","0"
"2.9204171","baseline","1053090947","1041492","392","-218","10258","1500","-23","750","-798","28.0625","-0.181075","-0.06007815","1.343038","23.42392","2.025287","23.01217","-0.9211831","1.594373","37.86993","-2.561306","-7.671018","-0.9770878","2.450466","-1.030905","-10.51168","1.338991","10.56211","1.008","1","1041493","0"
"2.9248486","baseline","1053094978","1041496","388","-361","9792","1046","25","759","-840","28.03125","-0.1876854","-0.005722042","1.275221","25.00465","-0.2195571","23.52105","-1.040338","1.59791","37.98766","-0.03495488","-8.381483","-1.096242","2.454003","1.061287","-10.83549","1.272792","10.88734","1.008","1","1041497","0"
"2.9293781","baseline","1053100018","1041501","392","-1025","9100","1408","85","853","-895","28.0625","-0.1827245","0.03856912","1.194474","26.65892","-2.091562","25.22934","-1.141518","1.593734","38.0866","1.849417","-8.692928","-1.197422","2.447725","3.839878","-11.4787","1.193948","12.10393","1.009","1","1041502","0"
"2.9463767","baseline","1053117161","1041518","398","-2244","6142","1329","487","913","-807","28.10938","-0.1938418","0.2364226","0.843481","25.47025","-14.29774","27.72026","-1.592547","1.457803","38.5438","16.50311","-11.84904","-1.67255","2.299661","18.17566","-14.1487","0.8810533","23.03346","1.008","1","1041519","0"
"2.951454","baseline","1053122203","1041523","400","-2004","5998","745","599","950","-744","28.09375","-0.1512702","0.2534386","0.773917","23.19458","-18.202","29.11409","-1.731014","1.362811","38.71944","18.13233","-10.52298","-1.786918","2.218904","19.91925","-12.74188","0.8282881","23.64598","1.008","1","1041524","0"
"2.9785673","baseline","1053149425","1041550","388","-2779","3542","-493","860","1119","-419","28.03125","0.02899425","0.3148697","0.4618207","14.09442","-25.96758","33.36565","-2.220119","0.7979609","39.56815","35.03016","3.841583","-2.288575","1.62889","37.31874","2.212693","0.5594695","37.38428","1.007","1","1041551","0"
"2.9836102","baseline","1053153456","1041555","396","-2906","3127","-1004","897","1137","-294","28.09375","0.06454792","0.3336849","0.4288255","10.62927","-27.49825","34.73479","-2.276189","0.6688615","39.74665","37.8878","6.774683","-2.332094","1.524954","40.21989","5.249729","0.5471776","41.61385","1.009","1","1041556","0"
"2.9881651","baseline","1053158496","1041559","402","-3011","3110","-830","875","1104","-179","28.14063","0.08639178","0.3474053","0.4034755","7.219593","-27.35388","34.32166","-2.306868","0.563706","39.89054","41.23501","9.564263","-2.368383","1.393805","43.60339","8.170458","0.5401414","44.36229","1.008","1","1041560","0"
"2.993885","baseline","1053164546","1041565","388","-2873","3502","-1235","779","1046","-75","28.03125","0.09841495","0.3572468","0.4131908","3.345632","-25.07111","32.7553","-2.330913","0.4131626","40.09954","40.84686","10.21373","-2.389003","1.245654","43.39487","8.783478","0.5593148","44.27488","1.009","1","1041566","0"
"3.0090356","baseline","1053179670","1041580","392","-2912","3804","-730","813","1265","234","28.0625","0.0778909","0.3799694","0.4521272","-5.844904","-25.22173","38.64356","-2.300986","0.06347084","40.65309","39.48766","7.346017","-2.349728","0.8959093","41.83739","6.450108","0.5938776","42.33168","1.008","1","1041581","0"
"3.0141185","baseline","1053184712","1041585","408","-2339","3996","-680","746","1232","351","28.1875","0.0780052","0.3410864","0.4664935","-9.216428","-23.93762","38.15744","-2.258542","-0.05233639","40.85185","35.00047","8.07333","-2.30387","0.781759","37.30434","7.291571","0.5810713","38.01027","1.008","1","1041586","0"
"3.0397557","baseline","1053209918","1041610","394","898","7652","-2615","300","1431","472","28.125","0.2534832","-0.06595193","0.8459899","-14.41069","-11.88716","44.67809","-1.883932","-0.4937163","41.96594","-4.457665","16.63208","-1.939837","0.3623765","-2.517829","16.2697","0.8856084","16.46338","1.008","1","1041612","0"
"3.0447406","baseline","1053214960","1041615","396","1055","8628","-2888","86","1383","452","28.09375","0.2951124","-0.09638239","0.9308384","-14.05264","-6.016329","43.14419","-1.825397","-0.5244091","42.18673","-6.12257","17.49955","-1.867092","0.3316837","-4.255478","17.16787","1.005854","17.68742","1.008","1","1041616","0"
"3.0493221","baseline","1053218994","1041619","394","1075","9652","-3303","-79","1437","433","28.07813","0.3027198","-0.1136635","1.041968","-13.28266","-0.5027032","43.8829","-1.756018","-0.5270585","42.36257","-6.225519","16.10945","-1.811923","0.3290343","-4.413597","15.78041","1.090988","16.38601","1.008","1","1041621","0"
"3.0542079","baseline","1053225042","1041625","406","1378","9907","-2678","-131","1487","397","28.17188","0.3249318","-0.1392823","1.13998","-12.44831","2.839206","44.68309","-1.690187","-0.511261","42.58473","-6.965849","15.79774","-1.746091","0.3448319","-5.49622","15.45522","1.201874","16.40343","1.009","1","1041626","0"
"3.0590192","baseline","1053229076","1041629","386","1958","10514","-3261","-184","1518","377","28.01563","0.3541411","-0.1862176","1.206909","-11.45745","4.680182","45.94905","-1.629052","-0.4861879","42.81471","-8.771173","16.14423","-1.684956","0.3699049","-7.086217","15.77432","1.271325","17.29288","1.008","1","1041630","0"
"3.0861104","baseline","1053256301","1041656","394","3105","13238","270","-606","1085","-129","28.07813","0.02929045","-0.3693013","1.598023","3.373318","18.47286","34.20683","-1.508588","-0.04534298","43.81526","-13.01255","1.023108","-1.564492","0.8107498","-11.44806","0.2123582","1.640402","11.45003","1.008","1","1041657","0"
"3.0911017","baseline","1053261343","1041661","374","3583","12190","-2683","-560","966","-207","27.92188","-0.04373016","-0.3632593","1.592302","5.51186","19.3828","35.14923","-1.530908","0.05789781","43.98708","-12.66309","0.5632597","-1.586813","0.9139906","-11.07628","-0.350731","1.625725","11.08183","1.008","1","1041662","0"
"3.0958093","baseline","1053266383","1041666","392","2973","12525","2989","-241","426","-223","28.0625","-0.1697065","-0.3388878","1.565229","6.566277","15.54836","14.91774","-1.554883","0.13763","44.05308","-11.85817","-9.852204","-1.617539","1.007818","-10.24063","-10.86002","1.64544","14.92684","1.009","1","1041667","0"
"3.1005558","baseline","1053271425","1041671","392","2369","12688","5707","-377","-7","-254","28.0625","-0.1219657","-0.2607504","1.551676","7.641028","11.16962","5.472829","-1.59141","0.2028373","44.09854","-9.539107","-4.432458","-1.647315","1.072397","-8.368111","-8.954532","1.593408","12.25597","1.007","1","1041672","0"
"3.1167734","baseline","1053287550","1041687","408","1026","11357","-948","-332","-1229","-369","28.1875","0.1887052","-0.173088","1.422917","11.05185","7.335497","-35.33866","-1.747688","0.2996838","43.80758","-6.37096","7.808843","-1.815608","1.163435","-4.555352","6.645408","1.433215","8.05684","1.007","1","1041688","0"
"3.1219427","baseline","1053292590","1041692","394","565","10690","-5014","-374","-1190","-379","28.07813","0.2626302","-0.09178235","1.36194","11.4548","10.06548","-34.43891","-1.808495","0.3416713","43.63198","-3.855386","10.89057","-1.864399","1.197764","-1.395055","11.05675","1.384311","11.14441","1.009","1","1041693","0"
"3.1484011","baseline","1053318805","1041718","382","-758","6671","3536","-423","-1700","-291","27.98438","-0.1118331","0.08249631","0.9123034","8.887537","12.01275","-51.64444","-2.120288","0.5464393","42.44242","5.500812","-9.3521","-2.176193","1.402532","7.677005","-10.75463","0.909068","13.21357","1.008","1","1041719","0"
"3.1532464","baseline","1053323846","1041723","404","-689","5968","2857","-178","-1431","-298","28.15625","-0.2763093","0.08033027","0.8252107","8.949977","8.144098","-46.18349","-2.160861","0.5793904","42.24593","5.248137","-19.94843","-2.227112","1.44","7.475248","-21.38843","0.8673882","22.6571","1.008","1","1041724","0"
"3.1578787","baseline","1053327879","1041727","386","-846","5461","2372","99","-1276","-349","28.01563","-0.3455741","0.0714616","0.762734","10.05262","0.639456","-39.95153","-2.215276","0.5836619","42.03153","6.073137","-25.09848","-2.271181","1.439755","8.344317","-26.53824","0.8316778","27.81916","1.009","1","1041728","0"
"3.16231","baseline","1053332921","1041732","382","-1606","4989","3080","286","-1113","-338","27.98438","-0.3772387","0.1235543","0.6866075","10.59288","-6.820027","-35.31733","-2.261798","0.5580109","41.88359","10.20114","-28.40181","-2.317703","1.414104","12.51885","-29.81591","0.7873156","33.79761","1.009","1","1041733","0"
"3.1802647","baseline","1053351072","1041750","406","-1979","3946","750","554","-875","-154","28.17188","-0.2659732","0.2345863","0.4981264","4.843841","-14.46196","-29.58992","-2.402469","0.3732734","41.25524","25.23487","-24.07122","-2.463812","1.211851","27.69868","-25.28308","0.5928683","37.50268","1.009","1","1041751","0"
"3.1852295","baseline","1053355106","1041754","398","-1743","3732","-1665","716","-721","-137","28.10938","-0.1337638","0.2166732","0.4653394","4.340816","-21.05987","-22.98286","-2.428195","0.2729657","41.13132","24.96782","-9.494797","-2.484099","1.129058","27.45192","-10.62386","0.5204406","29.43593","1.008","1","1041755","0"
"3.1896811","baseline","1053360148","1041759","412","-1474","3611","-1815","687","-820","-83","28.21875","0.06822066","0.2053436","0.4536082","3.233048","-21.65743","-23.19126","-2.444736","0.1814746","41.04481","24.21657","10.01697","-2.503988","1.015307","26.72056","9.001664","0.5040851","28.19607","1.008","1","1041760","0"
"3.2121182","baseline","1053382329","1041781","394","-1783","3796","-3917","347","-804","179","28.01563","0.3589475","0.2192406","0.4464504","-4.499696","-12.11876","-25.239","-2.433023","-0.149938","40.3724","26.15449","35.81723","-2.488927","0.7061548","28.64342","35.11108","0.6133741","45.31262","1.009","1","1041782","0"
"3.2172547","baseline","1053387371","1041786","400","-1764","4232","-2860","154","-992","210","28.125","0.3667819","0.2228006","0.4843943","-5.731372","-7.620809","-27.5607","-2.407159","-0.1997803","40.23973","24.68618","33.27383","-2.463063","0.6563125","27.14924","32.61752","0.6456023","42.438","1.009","1","1041787","0"
"3.2218439","baseline","1053392413","1041791","390","-1528","4070","-1088","-154","-1296","283","28.04688","0.2958515","0.2188241","0.4944795","-7.660016","1.035475","-36.13676","-2.380457","-0.2116693","40.10491","23.87103","28.68435","-2.436362","0.6444235","26.30739","28.03992","0.6028154","36.53044","1.009","1","1041792","0"
"3.2427789","baseline","1053413588","1041812","410","-244","6339","-331","-132","-656","372","28.20313","-0.0005634469","0.05725248","0.7085357","-10.88524","0.9980699","-18.89676","-2.182745","-0.2140204","39.5126","4.619688","-0.04541513","-2.23865","0.6437803","6.382205","-0.1441409","0.7226916","6.383832","1.008","1","1041813","0"
"3.2478089","baseline","1053417621","1041816","394","420","6771","299","-325","-819","376","27.95313","-0.004303819","0.005848824","0.77311","-11.39372","7.862187","-23.50229","-2.127157","-0.1912698","39.40263","0.4334526","-0.318947","-2.183061","0.664823","2.616514","-0.98377","0.7731441","2.795344","1.008","1","1041817","0"
"3.2522406","baseline","1053422662","1041821","390","807","7566","591","-277","-744","347","28.28125","-0.0477022","-0.05154961","0.853357","-10.6774","8.12597","-22.57436","-2.072891","-0.1523957","39.28177","-3.456924","-3.193664","-2.128796","0.7036971","-1.328128","-3.897361","0.8562424","4.117445","1.006","1","1041822","0"
"3.2737417","baseline","1053443835","1041842","392","1267","10172","-2077","-623","-642","238","28.14063","0.2398633","-0.1216558","1.186317","-7.5314","16.42394","-17.21733","-1.887451","-0.02963537","39.02871","-5.855165","11.37254","-1.943356","0.8264574","-3.911809","10.54608","1.216422","11.24821","1.008","1","1041844","0"
"3.2787854","baseline","1053448876","1041847","378","1502","10889","-1672","-602","-616","208","27.95313","0.2327447","-0.1519113","1.243098","-6.738435","17.78152","-18.39705","-1.853927","0.05653852","38.93218","-7.07569","10.24546","-1.909832","0.9126313","-5.165858","9.332832","1.291165","10.66714","1.009","1","1041848","0"
"3.2836089","baseline","1053453918","1041852","396","1382","11568","-1536","-524","-431","163","28.09375","0.2118275","-0.1662114","1.327945","-5.374734","16.32185","-14.92881","-1.831832","0.1225156","38.86384","-7.07233","8.65588","-1.882796","0.9942448","-5.189534","7.661635","1.368609","9.253752","1.007","1","1041853","0"
"3.3039945","baseline","1053475090","1041873","392","1887","12698","621","-945","-732","-26","28.0625","0.07577604","-0.2484147","1.51348","0.01951569","29.00501","-23.31702","-1.772683","0.5637319","38.48492","-9.32112","2.828475","-1.828587","1.419825","-7.492533","0.4767057","1.539394","7.253697","1.007","1","1041874","0"
"3.3105769","baseline","1053481138","1041879","400","1385","12656","1182","-761","-451","-65","28.125","-0.05443586","-0.2048859","1.536427","1.661063","24.48698","-16.07585","-1.782403","0.7205195","38.36294","-7.595705","-2.49542","-1.840581","1.600021","-5.481423","-4.09544","1.551772","6.842414","1.008","1","1041880","0"
"3.3150712","baseline","1053485172","1041883","390","1360","12492","991","-734","-384","-86","28.04688","-0.0873209","-0.1826481","1.53391","2.322587","22.36137","-12.50568","-1.792377","0.8332865","38.29232","-6.728518","-3.374935","-1.851222","1.689379","-4.877297","-5.064314","1.545009","7.031024","1.008","1","1041884","0"
"3.3193485","baseline","1053489205","1041887","396","1580","12278","923","-815","-450","-135","28.125","-0.0940125","-0.1841811","1.515882","3.621904","24.0258","-13.2616","-1.809909","0.9251627","38.23841","-6.927534","-3.523001","-1.865814","1.781255","-5.06172","-5.304256","1.529921","7.331859","1.008","1","1041889","0"
"3.3342449","baseline","1053504330","1041902","400","489","11382","1742","-639","-279","-267","28.125","-0.1826587","-0.1028778","1.441348","7.878219","21.33864","-11.00624","-1.910961","1.301701","37.98892","-4.082627","-7.204329","-1.966865","2.157794","-2.115762","-9.362123","1.456514","9.598219","1.008","1","1041904","0"
"3.3391894","baseline","1053509372","1041907","392","542","10796","898","-542","-199","-288","28.0625","-0.1582695","-0.08257529","1.376873","8.680014","17.00164","-6.63205","-1.954814","1.393518","37.94566","-3.337793","-6.029319","-2.010719","2.249611","-1.327075","-8.278931","1.386885","8.384618","1.008","1","1041908","0"
"3.3651442","baseline","1053535583","1041933","384","-950","7813","349","-344","-308","-361","28","-0.04212745","0.09449404","1.024053","11.13863","10.74239","-9.507632","-2.249288","1.806326","37.63973","5.272016","-2.34575","-2.305193","2.662419","7.577209","-5.008169","1.029266","9.082723","1.008","1","1041934","0"
"3.3703347","baseline","1053540624","1041938","400","-1139","7330","-131","-345","-389","-351","28.125","-0.01762103","0.110534","0.9662012","10.89665","10.05382","-10.53243","-2.295599","1.845508","37.59816","6.966444","-1.023458","-2.362999","2.711328","9.329443","-3.734786","0.9612117","10.04924","1.009","1","1041939","0"
"3.3749155","baseline","1053545662","1041943","408","-1550","6984","563","-360","-507","-338","28.1875","-0.02807842","0.1420468","0.9085528","10.56045","10.3724","-13.89962","-2.352735","1.894374","37.53278","8.88592","-1.748905","-2.40864","2.750467","11.29456","-4.499372","0.9200184","12.94578","1.005","1","1041944","0"
"3.3794081","baseline","1053549693","1041947","386","-1788","6562","1292","-337","-515","-311","28.01563","-0.06934266","0.1739845","0.8638179","9.964768","10.2873","-15.31673","-2.397051","1.933958","37.47049","12.17192","-5.624131","-2.463557","2.799413","14.63548","-8.423544","0.875273","16.88648","1.008","1","1041948","0"
"3.3961696","baseline","1053566834","1041964","404","-2018","4806","1476","100","-170","-154","28.15625","-0.2025087","0.2362835","0.6373537","5.371554","-2.660773","-5.227691","-2.535532","1.985768","37.29565","20.78787","-16.61029","-2.596766","2.83857","23.38464","-19.44886","0.7006329","30.41545","1.009","1","1041965","0"
"3.4014916","baseline","1053571876","1041969","396","-2268","4500","1039","130","-171","-63","28.09375","-0.1691988","0.2547526","0.5904084","3.091717","-3.999705","-4.858758","-2.55748","1.966704","37.27672","23.7904","-14.47188","-2.61614","2.818358","26.40654","-17.29024","0.659461","31.56355","1.009","1","1041970","0"
"3.4118822","baseline","1053581960","1041979","400","-1731","4271","1034","312","-1","87","28.15625","-0.1484188","0.2368106","0.5411081","-1.997635","-9.269985","-0.4343846","-2.559245","1.894617","37.24358","23.63611","-14.10508","-2.615149","2.75071","26.25126","-16.85579","0.60902","31.1969","1.008","1","1041980","0"
"3.4266971","baseline","1053597085","1041994","392","-2290","4567","-1105","444","180","264","28.0625","0.03228024","0.2641599","0.5361659","-7.038588","-14.23385","6.041984","-2.494314","1.699046","37.31798","26.18859","4.633432","-2.542352","2.555139","28.73094","2.078293","0.6041737","28.80601","1.008","1","1041995","0"
"3.4318401","baseline","1053602126","1041999","384","-1968","4731","-940","392","162","336","28","0.07781389","0.2584065","0.555832","-9.319828","-12.78718","5.258053","-2.45047","1.64683","37.34201","24.52873","7.593936","-2.496304","2.490532","27.02503","5.103404","0.6211341","27.50267","1.007","1","1042000","0"
"3.4423736","baseline","1053613216","1042010","396","-1195","5553","-1297","379","313","455","28.09375","0.1133523","0.1879247","0.6232489","-13.24496","-11.84995","8.687231","-2.318589","1.51875","37.41809","16.77933","9.877853","-2.374494","2.374843","19.15383","7.503011","0.6607599","19.75546","1.008","1","1042011","0"
"3.4583226","baseline","1053628342","1042026","398","399","7178","-1807","116","372","524","28.10938","0.2004248","0.01494096","0.8161636","-15.88456","-5.461284","11.80205","-2.069258","1.365985","37.60967","1.048759","13.79485","-2.125162","2.222078","3.173921","11.57277","0.8405453","12.00012","1.008","1","1042027","0"
"3.4632991","baseline","1053634392","1042031","392","727","7839","-1061","53","441","505","28.0625","0.1665301","-0.03804126","0.8816785","-15.56987","-2.60809","12.78344","-1.987552","1.350431","37.67156","-3.00015","10.11906","-2.027386","2.204587","-0.9727647","7.914469","0.9116738","7.974026","1.008","1","1042032","0"
"3.4735721","baseline","1053643467","1042041","406","967","9150","-1326","39","691","444","28.17188","0.141901","-0.09767258","1.036998","-13.86413","-1.756747","20.13631","-1.832866","1.336473","37.84063","-5.380692","7.757951","-1.888771","2.192566","-3.491921","5.565385","1.051209","6.731351","1.009","1","1042042","0"
"3.4895446","baseline","1053659600","1042057","420","1541","10698","-657","-309","725","323","28.28125","0.1291683","-0.1674005","1.235291","-10.43638","8.410799","21.75784","-1.623031","1.402547","38.18238","-7.717426","5.915757","-1.678935","2.25864","-6.038491","3.657117","1.253257","7.059595","1.009","1","1042058","0"
"3.4944538","baseline","1053664640","1042061","392","1843","11023","-242","-280","817","267","28.0625","0.09359983","-0.1868096","1.284305","-8.894154","8.471693","23.82346","-1.581087","1.439932","38.27393","-8.290955","3.822405","-1.627431","2.305085","-6.663523","1.51732","1.312057","6.834091","1.008","1","1042062","0"
"3.5053561","baseline","1053675730","1042072","404","2014","11451","-917","-330","933","135","28.15625","0.1082547","-0.2268842","1.373809","-4.405023","9.213957","28.65658","-1.489724","1.544193","38.60469","-9.572841","4.604603","-1.545629","2.400285","-8.027212","2.204317","1.397721","8.324371","1.008","1","1042073","0"
"3.5103343","baseline","1053680771","1042077","394","1967","11615","-980","-450","845","82","28.07813","0.1178064","-0.2363636","1.392755","-3.0628","11.96686","27.03103","-1.470748","1.591314","38.71542","-9.631862","4.767024","-1.522734","2.460855","-8.064981","2.330893","1.423006","8.395056","1.009","1","1042078","0"
"3.5209131","baseline","1053691863","1042088","400","1670","11601","-43","-417","942","-39","28.125","0.04137662","-0.2193857","1.423561","0.588226","13.074","27.89025","-1.44577","1.75068","39.00658","-8.76096","1.645452","-1.501675","2.606773","-7.259285","-0.9613204","1.438469","7.279231","1.008","1","1042089","0"
"3.5362745","baseline","1053706988","1042103","392","977","10743","79","-473","875","-152","28.0625","0.0255433","-0.1560804","1.347829","4.368171","13.28651","28.08322","-1.466732","1.941603","39.45452","-6.605509","1.078502","-1.522636","2.797696","-4.850898","-1.869951","1.34942","5.198839","1.008","1","1042104","0"
"3.5411633","baseline","1053711021","1042107","380","629","10496","614","-469","848","-167","28.1875","-0.01908781","-0.1159299","1.31163","4.971319","13.74539","26.49369","-1.484125","2.014564","39.58847","-5.051023","-0.830514","-1.54003","2.870656","-3.510993","-3.70117","1.316882","5.101542","1.008","1","1042109","0"
"3.5522473","baseline","1053722111","1042119","410","119","9290","737","-195","1040","-194","28.20313","-0.0963854","-0.04871256","1.196322","5.826455","6.819799","31.12944","-1.528602","2.137208","39.90346","-2.331715","-4.602464","-1.584506","2.9933","-0.7472087","-7.595765","1.201187","7.559072","1.008","1","1042120","0"
"3.5673354","baseline","1053738245","1042134","396","-748","7832","1171","-143","875","-131","28.09375","-0.1086927","0.05981353","1.020954","4.421315","4.871263","27.23723","-1.586702","2.236758","40.35172","3.352892","-6.066603","-1.642607","3.09285","4.995499","-9.546288","1.017393","10.93602","1.008","1","1042135","0"
"3.5726303","baseline","1053742278","1042139","390","-888","7342","1212","4","967","-100","28.04688","-0.1339434","0.08481217","0.9601348","3.500487","1.166289","28.68496","-1.598719","2.254788","40.49192","5.04804","-7.911369","-1.654624","3.110881","6.702664","-11.02225","0.9731355","12.90022","1.008","1","1042140","0"
"3.5833712","baseline","1053753370","1042150","380","-1675","6570","407","168","1027","13","27.96875","-0.09310573","0.160103","0.8474162","0.4546674","-5.181306","32.00236","-1.602586","2.230649","40.84189","10.69883","-6.161799","-1.658491","3.086742","12.35732","-9.248542","0.8674191","15.43499","1.008","1","1042151","0"
"3.5982861","baseline","1053768496","1042164","398","-1331","6121","5164","438","575","239","28.10938","-0.1740881","0.2027168","0.7390435","-6.350816","-11.33587","20.51381","-1.529763","2.138139","41.25029","14.97429","-13.34538","-1.585668","2.994232","16.55996","-16.33961","0.7807083","23.26403","1.009","1","1042165","0"
"3.6028701","baseline","1053772530","1042169","396","-793","5784","2829","339","604","303","28.09375","-0.1329321","0.1848375","0.7111488","-8.410508","-13.97382","19.71839","-1.493911","2.082956","41.33551","14.5696","-10.25474","-1.549816","2.939049","16.11941","-13.19379","0.7467051","20.83054","1.009","1","1042170","0"
