pc_elapsed_s,pc_unix_s,frame_index,roll_deg,pitch_deg,yaw_deg,altitude_m,accel_x_g,accel_y_g,accel_z_g,gyro_x_dps,gyro_y_dps,gyro_z_dps,fc_time_s,imu_irq_hz,imu_poll_hz,imu_age_ms,roll_acc_deg,pitch_acc_deg,roll_gyro_deg,pitch_gyro_deg,roll_residual_deg,pitch_residual_deg,attitude_cf_alpha,attitude_dt_ms,coax_roll_rate_kd,coax_pitch_rate_kd,coax_yaw_angle_kp,coax_yaw_rate_kd,coax_vel_x_kd,coax_vel_y_kd,coax_vel_z_kd,coax_accel_xy_limit_m_s2,coax_accel_z_limit_m_s2,nav_acc_x_m_s2,nav_acc_y_m_s2,nav_acc_z_m_s2,vel_est_x_m_s,vel_est_y_m_s,vel_ref_x_m_s,vel_ref_y_m_s,vel_err_x_m_s,vel_err_y_m_s,vel_pid_out_x_m_s2,vel_pid_out_y_m_s2,vel_pid_p_x_m_s2,vel_pid_i_x_m_s2,vel_pid_d_x_m_s2,vel_pid_p_y_m_s2,vel_pid_i_y_m_s2,vel_pid_d_y_m_s2,servo_alpha_us,servo_beta_us,motor_upper_us,motor_lower_us,vel_loop_x_kp,vel_loop_y_kp,vel_loop_output_limit_m_s2,vel_loop_x_ki,vel_loop_y_ki,vel_loop_i_limit_m_s2,vel_loop_x_kd,vel_loop_y_kd,vel_loop_enable,flow_raw_vx_m_s,flow_raw_vy_m_s
0.141770,1783679966.442255,1,-0.76637888,-0.228714228,24.6604252,0,0.0461665653,0.00281774625,0.994350791,-0.0433273315,0.00345127657,0.0727519542,144.235001,991.952393,0,0.34800002,0.162361756,2.65825748,0.193940416,2.7402699,-0.03157866,-0.0820124149,0.996023893,0.998000026,-1.60000002,-1.60000002,-3,-0.200000003,0,0,3.0999999,3,2.5,0,0,0,1.697056e-05,5.09116835e-05,0,0,0.0377729647,0.04425909,0.226637781,0.266158968,0.226637781,0,-0,0.265554547,0.000604435452,0,1467,1933,1405,1449,6,-6,21.6700001,0,0.0199999996,0.540000021,0,0,1,0.000212132014,0.000636396057
0.172101,1783679966.472585,2,-0.762386978,-0.239387512,24.6614666,0,0.0462248698,0.00359508209,0.994342804,-0.0258339532,-0.0617269203,0.0316638425,144.285004,991.952393,0,0.0700000003,0.207154036,2.66162467,0.197768778,2.72954535,0.00938525796,-0.0679206848,0.995956361,1.0150001,-1.60000002,-1.60000002,-3,-0.200000003,0,0,3.0999999,3,2.5,-7.39395637e-06,0.00010027059,3.67355351e-05,-3.39486251e-05,3.4042896e-05,0,0,0.0377729647,0.04425909,0.226637781,0.266158968,0.226637781,0,-0,0.265554547,0.000604435452,0,1467,1933,1405,1449,6,-6,21.6700001,0,0.0199999996,0.540000021,0,0,1,-0.000424264028,0.000424264028
0.234799,1783679966.535284,3,-0.76623702,-0.25358367,24.6622715,0,0.0468727201,0.00230884971,0.994549096,-0.0554959029,0.00691766245,-0.00396599248,144.335007,991.952393,0,0.546000004,0.133012146,2.69832444,0.194202125,2.71514201,-0.0611899793,-0.0168175697,0.99598819,1.00699997,-1.60000002,-1.60000002,-3,-0.200000003,0,0,3.0999999,3,2.5,0,0,0,0,6.78822398e-05,0,0,0.0377729647,0.04425909,0.226637781,0.266158968,0.226637781,0,-0,0.265554547,0.000604435452,0,1467,1933,1405,1449,6,-6,21.6700001,0,0.0199999996,0.540000021,0,0,1,-0,0.000848528056
0.309850,1783679966.610334,4,-0.761052608,-0.244851351,24.6625538,0,0.0483371913,0.00385070499,0.994920135,-0.0463391915,0.0184057094,0.0247377194,144.38501,991.952393,0,0.140000001,0.221754521,2.78144979,0.199049741,2.72357392,0.0227047801,0.0578758717,0.995976269,1.00999999,-1.60000002,-1.60000002,-3,-0.200000003,0,0,3.0999999,3,2.5,0,0,0,-5.09116835e-05,8.4852807e-05,0,0,0.0377729647,0.04425909,0.226637781,0.266158968,0.226637781,0,-0,0.265554547,0.000604435452,0,1467,1933,1405,1449,6,-6,21.6700001,0,0.0199999996,0.540000021,0,0,1,-0.000636396057,0.00106066011
0.371532,1783679966.672017,5,-0.7628901,-0.239973068,24.6626606,0,0.0472140796,0.00256385375,0.994219244,-0.0341018513,-0.0715761855,0.0107809175,144.435013,991.908752,0,0.738000035,0.147751793,2.71884465,0.19750382,2.72872496,-0.0497520268,-0.00988030434,0.995976269,1.00999999,-1.60000002,-1.60000002,-3,-0.200000003,0,0,3.0999999,3,2.5,0,0,0,-3.39411199e-05,0,0,0,0.0377729647,0.04425909,0.226637781,0.266158968,0.226637781,0,-0,0.265554547,0.000604435452,0,1467,1933,1405,1449,6,-6,21.6700001,0,0.0199999996,0.540000021,0,0,1,-0.000424264028,-0
0.402752,1783679966.703237,6,-0.759021997,-0.24475646,24.6634598,0,0.047648862,0.00380097027,0.99459064,-0.0867885053,0.115882762,0.000381188467,144.485001,991.908752,0,0.325000018,0.218962938,2.74280977,0.201100037,2.72382545,0.0178629011,0.0189843178,0.99598819,1.00699997,-1.60000002,-1.60000002,-3,-0.200000003,0,0,3.0999999,3,2.5,0,0,0,-3.39411199e-05,3.39411199e-05,0,0,0.0377729647,0.04425909,0.226637781,0.266158968,0.226637781,0,-0,0.265554547,0.000604435452,0,1467,1933,1405,1449,6,-6,21.6700001,0,0.0199999996,0.540000021,0,0,1,-0.000424264028,0.000424264028
0.466384,1783679966.766869,7,-0.758291364,-0.243247271,24.6634293,0,0.047640495,0.00261307228,0.994524002,-0.00729716383,-0.0495938137,0.0623212233,144.535004,991.908752,0,0.0700000003,0.150542036,2.74252295,0.202097937,2.72534561,-0.0515559018,0.0171773434,0.996206403,0.951999962,-1.60000002,-1.60000002,-3,-0.200000003,0,0,3.0999999,3,2.5,7.97706889e-05,-6.2044528e-05,5.21278416e-05,7.5941692e-08,-5.90663873e-08,0,0,0.0377729647,0.04425909,0.226637781,0.266158968,0.226637781,0,-0,0.265554547,0.000604435452,0,1467,1933,1405,1449,6,-6,21.6700001,0,0.0199999996,0.540000021,0,0,1,-0,-0
0.559029,1783679966.859514,8,-0.758596063,-0.249507904,24.6638145,0,0.0459705144,0.00422284752,0.994491756,-0.0502296984,0.00951568782,-0.014603788,144.585007,991.908752,0,0.522000015,0.243289977,2.64659739,0.201429501,2.71944284,0.0418604761,-0.072845459,0.995984197,1.00800002,-1.60000002,-1.60000002,-3,-0.200000003,0,0,3.0999999,3,2.5,0,0,0,-3.39411199e-05,-3.39411199e-05,0,0,0.0377729647,0.04425909,0.226637781,0.266158968,0.226637781,0,-0,0.265554547,0.000604435452,0,1467,1933,1405,1449,6,-6,21.6700001,0,0.0199999996,0.540000021,0,0,1,-0.000424264028,-0.000424264028
0.590252,1783679966.890736,9,-0.759718239,-0.257038832,24.6636162,0,0.0460774973,0.00309484731,0.994324148,-0.00154887442,0.00896548852,-0.00858335756,144.63501,991.908752,0,0.111000009,0.178333327,2.65320516,0.200564802,2.71185517,-0.0222314745,-0.0586500168,0.995980263,1.00899994,-1.60000002,-1.60000002,-3,-0.200000003,0,0,3.0999999,3,2.5,0,0,0,-5.09116835e-05,1.697056e-05,0,0,0.0377729647,0.04425909,0.226637781,0.266158968,0.226637781,0,-0,0.265554547,0.000604435452,0,1467,1933,1405,1449,6,-6,21.6700001,0,0.0199999996,0.540000021,0,0,1,-0.000636396057,0.000212132014
0.654837,1783679966.955322,10,-0.757756591,-0.268452644,24.6651115,0,0.0465874486,0.00407241052,0.994264662,-0.0864035636,-0.153587431,0.0780636221,144.685013,991.908752,0,0.718000054,0.234676585,2.68267703,0.202307001,2.70027637,0.0323695838,-0.0175993443,0.995980263,1.00899994,-1.60000002,-1.60000002,-3,-0.200000003,0,0,3.0999999,3,2.5,0,0,0,0,0,0,0,0.0377729647,0.04425909,0.226637781,0.266158968,0.226637781,0,-0,0.265554547,0.000604435452,0,1467,1933,1405,1449,6,-6,21.6700001,0,0.0199999996,0.540000021,0,0,1,-0,-0
0.717434,1783679967.017919,11,-0.758782864,-0.278846979,24.6656647,0,0.0453542396,0.0023645279,0.993631482,-0.00513066817,0.0591573901,0.0177629516,144.735001,991.908752,0,0.310000002,0.136345536,2.61344051,0.201673925,2.69011998,-0.0653283894,-0.0766794682,0.995972216,1.01100004,-1.60000002,-1.60000002,-3,-0.200000003,0,0,3.0999999,3,2.5,0,0,0,-1.697056e-05,-1.697056e-05,0,0,0.0377729647,0.04425909,0.226637781,0.266158968,0.226637781,0,-0,0.265554547,0.000604435452,0,1467,1933,1405,1449,6,-6,21.6700001,0,0.0199999996,0.540000021,0,0,1,-0.000212132014,-0.000212132014
0.779615,1783679967.080100,12,-0.764759898,-0.280014992,24.6661701,0,0.045943588,0.00373922475,0.994309485,-0.115878098,-0.0547335185,0.00124300644,144.785004,991.908752,0,0.0710000023,0.215466917,2.64553857,0.195356265,2.68881011,0.0201106519,-0.0432715416,0.996142924,0.967999995,-1.60000002,-1.60000002,-3,-0.200000003,0,0,3.0999999,3,2.5,-8.55034596e-05,8.49343905e-06,9.1552738e-06,-3.40238876e-05,3.39493417e-05,0,0,0.0377729647,0.04425909,0.226637781,0.266158968,0.226637781,0,-0,0.265554547,0.000604435452,0,1467,1933,1405,1449,6,-6,21.6700001,0,0.0199999996,0.540000021,0,0,1,-0.000424264028,0.000424264028
0.825049,1783679967.125534,13,-0.76188004,-0.287192583,24.6662731,0,0.0460818931,0.00304585323,0.99427861,0.0686840191,0.0317984186,0.001100122,144.835007,991.908752,0,0.513999999,0.1755182,2.65357971,0.198403254,2.6815753,-0.0228850543,-0.0279955864,0.996083379,0.98300004,-1.60000002,-1.60000002,-3,-0.200000003,0,0,3.0999999,3,2.5,0,0,0,3.39411199e-05,0,0,0,0.0377729647,0.04425909,0.226637781,0.266158968,0.226637781,0,-0,0.265554547,0.000604435452,0,1467,1933,1405,1449,6,-6,21.6700001,0,0.0199999996,0.540000021,0,0,1,0.000424264028,-0
0.888666,1783679967.189151,14,-0.766935229,-0.284746647,24.6664715,0,0.046494551,0.00341844629,0.99422425,-0.107708901,-0.00333618373,0.0275066812,144.88501,991.908752,0,0.111000009,0.196999595,2.67745066,0.193243414,2.68393755,0.00375618041,-0.0064868927,0.99598819,1.00699997,-1.60000002,-1.60000002,-3,-0.200000003,0,0,3.0999999,3,2.5,0,0,0,1.697056e-05,-1.697056e-05,0,0,0.0377729647,0.04425909,0.226637781,0.266158968,0.226637781,0,-0,0.265554547,0.000604435452,0,1467,1933,1405,1449,6,-6,21.6700001,0,0.0199999996,0.540000021,0,0,1,0.000212132014,-0.000212132014
0.950238,1783679967.250723,15,-0.763878524,-0.294103861,24.6675072,0,0.0464552902,0.00309448666,0.994090736,0.0415219404,-0.041102346,0.0293122604,144.935013,991.988098,0,0.715000033,0.178354397,2.67555451,0.196387678,2.67455029,-0.018033281,0.00100421906,0.995980263,1.00899994,-1.60000002,-1.60000002,-3,-0.200000003,0,0,3.0999999,3,2.5,0,0,0,1.697056e-05,-1.697056e-05,0,0,0.0377729647,0.04425909,0.226637781,0.266158968,0.226637781,0,-0,0.265554547,0.000604435452,0,1467,1933,1405,1449,6,-6,21.6700001,0,0.0199999996,0.540000021,0,0,1,0.000212132014,-0.000212132014
0.990272,1783679967.290757,16,-0.766406059,-0.288238525,24.6681423,0,0.0479443148,0.00325550791,0.994355083,-0.130428925,0.0687964112,0.0354498439,144.985001,991.988098,0,0.30400002,0.187585101,2.76044869,0.193812624,2.68009734,-0.00622752309,0.0803513527,0.99598819,1.00699997,-1.60000002,-1.60000002,-3,-0.200000003,0,0,3.0999999,3,2.5,0,0,0,3.39411199e-05,3.39411199e-05,0,0,0.0377729647,0.04425909,0.226637781,0.266158968,0.226637781,0,-0,0.265554547,0.000604435452,0,1467,1933,1405,1449,6,-6,21.6700001,0,0.0199999996,0.540000021,0,0,1,0.000424264028,0.000424264028
1.051869,1783679967.352354,17,-0.764179409,-0.285484076,24.6684074,0,0.0470157079,0.00315529061,0.994143546,0.0714943558,-0.0619557947,0.0250122603,145.035004,991.988098,0,0.0960000008,0.181849211,2.70763969,0.196069688,2.68307829,-0.0142204762,0.0245614052,0.996103287,0.977999985,-1.60000002,-1.60000002,-3,-0.200000003,0,0,3.0999999,3,2.5,-1.25169763e-07,3.82489743e-05,4.10842913e-05,3.39409962e-05,3.74074958e-08,0,0,0.0377729647,0.04425909,0.226637781,0.266158968,0.226637781,0,-0,0.265554547,0.000604435452,0,1467,1933,1405,1449,6,-6,21.6700001,0,0.0199999996,0.540000021,0,0,1,0.000424264028,-0
1.113210,1783679967.413695,18,-0.767416716,-0.291739941,24.6693726,0,0.0456879213,0.00274835876,0.994106352,-0.139499962,0.0554080717,0.0275054444,145.085007,991.988098,0,0.502000034,0.158402532,2.6313827,0.192915723,2.67710209,-0.0345131904,-0.0457193851,0.995980263,1.00899994,-1.60000002,-1.60000002,-3,-0.200000003,0,0,3.0999999,3,2.5,0,0,0,1.697056e-05,-1.697056e-05,0,0,0.0377729647,0.04425909,0.226637781,0.266158968,0.226637781,0,-0,0.265554547,0.000604435452,0,1467,1933,1405,1449,6,-6,21.6700001,0,0.0199999996,0.540000021,0,0,1,0.000212132014,-0.000212132014
1.176316,1783679967.476800,19,-0.762201667,-0.28480792,24.6698532,0,0.047321599,0.00317731965,0.994517446,0.0299775116,-0.0652254224,0.0148258768,145.13501,991.988098,0,0.0950000063,0.183049962,2.72420645,0.198050693,2.68369174,-0.0150007308,0.0405147076,0.996087432,0.982000053,-1.60000002,-1.60000002,-3,-0.200000003,0,0,3.0999999,3,2.5,0,0,0,0,0,0,0,0.0377729647,0.04425909,0.226637781,0.266158968,0.226637781,0,-0,0.265554547,0.000604435452,0,1467,1933,1405,1449,6,-6,21.6700001,0,0.0199999996,0.540000021,0,0,1,-0,-0
1.238718,1783679967.539202,20,-0.768823266,-0.279361963,24.6705608,0,0.0468790978,0.00305916718,0.994904578,-0.106495708,0.00736478809,0.0349539816,145.185013,991.924622,0,0.694000006,0.176174507,2.69772267,0.191431746,2.68926215,-0.0152572393,0.0084605217,0.995980263,1.00899994,-1.60000002,-1.60000002,-3,-0.200000003,0,0,3.0999999,3,2.5,0,0,0,6.78822471e-05,3.39411272e-05,0,0,0.0377729647,0.04425909,0.226637781,0.266158968,0.226637781,0,-0,0.265554547,0.000604435452,0,1467,1933,1405,1449,6,-6,21.6700001,0,0.0199999996,0.540000021,0,0,1,0.000848528114,0.000424264115
1.287631,1783679967.588115,21,-0.763255656,-0.269587278,24.6708279,0,0.0477599204,0.00341404416,0.994449317,0.00517651765,0.0590004101,0.0386327356,145.235001,991.924622,0,0.282000005,0.196701378,2.74958682,0.196939006,2.69886708,-0.000237628818,0.050719738,0.995980263,1.00899994,-1.60000002,-1.60000002,-3,-0.200000003,0,0,3.0999999,3,2.5,0,0,0,0,0,0,0,0.0377729647,0.04425909,0.226637781,0.266158968,0.226637781,0,-0,0.265554547,0.000604435452,0,1467,1933,1405,1449,6,-6,21.6700001,0,0.0199999996,0.540000021,0,0,1,-0,-0
1.331804,1783679967.632288,22,-0.766728282,-0.259049416,24.6721039,0,0.0464442186,0.0028342458,0.994826257,-0.115653716,-0.0881439373,0.0111864032,145.285004,991.924622,0,0.879000068,0.163234413,2.67294526,0.193588302,2.7097578,-0.0303538889,-0.0368125439,0.995952487,1.01600003,-1.60000002,-1.60000002,-3,-0.200000003,0,0,3.0999999,3,2.5,-5.03110896e-05,4.78074726e-05,9.44137628e-06,3.38893988e-05,4.91460845e-08,0,0,0.0377729647,0.04425909,0.226637781,0.266158968,0.226637781,0,-0,0.265554547,0.000604435452,0,1467,1933,1405,1449,6,-6,21.6700001,0,0.0199999996,0.540000021,0,0,1,0.000424264028,-0
1.393335,1783679967.693819,23,-0.762672901,-0.261697054,24.6722088,0,0.0475157499,0.00397860352,0.994101763,0.0454896688,0.10090816,0.00955439452,145.335007,991.924622,0,0.479000032,0.229308471,2.73650026,0.197392792,2.70684218,0.0319156796,0.0296580791,0.99598819,1.00699997,-1.60000002,-1.60000002,-3,-0.200000003,0,0,3.0999999,3,2.5,0,0,0,0,6.78822398e-05,0,0,0.0377729647,0.04425909,0.226637781,0.266158968,0.226637781,0,-0,0.265554547,0.000604435452,0,1467,1933,1405,1449,6,-6,21.6700001,0,0.0199999996,0.540000021,0,0,1,-0,0.000848528056
1.456624,1783679967.757108,24,-0.763269782,-0.256990433,24.6726608,0,0.0480263568,0.00331100915,0.993935883,-0.0736778975,-0.0438365228,0.0334758423,145.38501,991.924622,0,0.0800000057,0.190863565,2.76632905,0.196948379,2.71144724,-0.00608481467,0.0548818111,0.995980263,1.00899994,-1.60000002,-1.60000002,-3,-0.200000003,0,0,3.0999999,3,2.5,0,0,0,3.39411199e-05,0,0,0,0.0377729647,0.04425909,0.226637781,0.266158968,0.226637781,0,-0,0.265554547,0.000604435452,0,1467,1933,1405,1449,6,-6,21.6700001,0,0.0199999996,0.540000021,0,0,1,0.000424264028,-0
1.519104,1783679967.819588,25,-0.761273146,-0.264271498,24.6736259,0,0.0463901386,0.00347470376,0.994529068,-0.0206221174,-0.00240928493,0.0317823924,145.435013,991.916687,0,0.674000025,0.200180233,2.67062855,0.198915482,2.70452285,0.00126475096,-0.0338943005,0.995980263,1.00899994,-1.60000002,-1.60000002,-3,-0.200000003,0,0,3.0999999,3,2.5,0,0,0,-1.697056e-05,-1.697056e-05,0,0,0.0377729647,0.04425909,0.226637781,0.266158968,0.226637781,0,-0,0.265554547,0.000604435452,0,1467,1933,1405,1449,6,-6,21.6700001,0,0.0199999996,0.540000021,0,0,1,-0.000212132014,-0.000212132014
1.580836,1783679967.881321,26,-0.765088499,-0.274091244,24.6737652,0,0.0465891361,0.0024110151,0.994312286,-0.0943855196,0.0127166472,0.00949362479,145.485001,991.916687,0,0.26700002,0.138930917,2.68266034,0.195331916,2.69461489,-0.0564009994,-0.011954546,0.995980263,1.00899994,-1.60000002,-1.60000002,-3,-0.200000003,0,0,3.0999999,3,2.5,0,0,0,3.39411199e-05,3.39411199e-05,0,0,0.0377729647,0.04425909,0.226637781,0.266158968,0.226637781,0,-0,0.265554547,0.000604435452,0,1467,1933,1405,1449,6,-6,21.6700001,0,0.0199999996,0.540000021,0,0,1,0.000424264028,0.000424264028
1.642446,1783679967.942931,27,-0.760815382,-0.280823708,24.6751556,0,0.0454280898,0.00396515708,0.994340241,-0.0350945555,-0.0595995001,0.0307049602,145.535004,991.916687,0,0.873000026,0.228478715,2.61581326,0.199262023,2.68812227,0.0292166919,-0.0723090172,0.9960199,0.999000013,-1.60000002,-1.60000002,-3,-0.200000003,0,0,3.0999999,3,2.5,1.97499994e-05,-9.646744e-05,-2.8266908e-05,-1.69506511e-05,-1.70677995e-05,0,0,0.0377729647,0.04425909,0.226637781,0.266158968,0.226637781,0,-0,0.265554547,0.000604435452,0,1467,1933,1405,1449,6,-6,21.6700001,0,0.0199999996,0.540000021,0,0,1,-0.000212132014,-0.000212132014
1.687449,1783679967.987933,28,-0.763720036,-0.291175604,24.6756668,0,0.0452352129,0.00255660107,0.994265676,-0.0358909145,0.108356088,0.0357397497,145.585007,991.916687,0,0.489000022,0.147326961,2.60492992,0.196672037,2.67777538,-0.0493450761,-0.072845459,0.995980263,1.00899994,-1.60000002,-1.60000002,-3,-0.200000003,0,0,3.0999999,3,2.5,0,0,0,-6.78822398e-05,6.78822398e-05,0,0,0.0377729647,0.04425909,0.226637781,0.266158968,0.226637781,0,-0,0.265554547,0.000604435452,0,1467,1933,1405,1449,6,-6,21.6700001,0,0.0199999996,0.540000021,0,0,1,-0.000848528056,0.000848528056
1.732890,1783679968.033375,29,-0.763638794,-0.301253796,24.6761227,0,0.0457534939,0.00342965336,0.994216144,-0.0199311711,-0.121974945,0.0421517789,145.63501,991.916687,0,0.0790000036,0.197647035,2.63485789,0.196550474,2.66753578,0.00109656155,-0.0326778889,0.995980263,1.00899994,-1.60000002,-1.60000002,-3,-0.200000003,0,0,3.0999999,3,2.5,0,0,0,0,0,0,0,0.0377729647,0.04425909,0.226637781,0.266158968,0.226637781,0,-0,0.265554547,0.000604435452,0,1467,1933,1405,1449,6,-6,21.6700001,0,0.0199999996,0.540000021,0,0,1,-0,-0
1.810336,1783679968.110821,30,-0.766640544,-0.309308052,24.6775627,0,0.045530621,0.00266940007,0.995592952,-0.0677318797,0.0437277183,0.0223127492,145.685013,991.964294,0,0.666000009,0.153622001,2.61842632,0.193714276,2.65951514,-0.0400922745,-0.0410888195,0.995980263,1.00899994,-1.60000002,-1.60000002,-3,-0.200000003,0,0,3.0999999,3,2.5,0,0,0,-3.39411199e-05,3.39411199e-05,0,0,0.0377729647,0.04425909,0.226637781,0.266158968,0.226637781,0,-0,0.265554547,0.000604435452,0,1467,1933,1405,1449,6,-6,21.6700001,0,0.0199999996,0.540000021,0,0,1,-0.000424264028,0.000424264028
1.871865,1783679968.172349,31,-0.762902796,-0.31035924,24.677887,0,0.0465470254,0.00379342865,0.994291902,-0.0379671156,0.0642716289,-0.000303548761,145.735001,991.964294,0,0.265000015,0.218594149,2.68028235,0.197207287,2.65821266,0.0213868618,0.0220696926,0.996091306,0.981000006,-1.60000002,-1.60000002,-3,-0.200000003,0,0,3.0999999,3,2.5,0,0,0,0,6.78822398e-05,0,0,0.0377729647,0.04425909,0.226637781,0.266158968,0.226637781,0,-0,0.265554547,0.000604435452,0,1467,1933,1405,1449,6,-6,21.6700001,0,0.0199999996,0.540000021,0,0,1,-0,0.000848528056
1.902417,1783679968.202902,32,-0.764085412,-0.316041708,24.6787472,0,0.0454075187,0.00321472762,0.994032979,-0.00222434755,-0.056107197,0.0360191017,145.785004,991.964294,0,0.896000028,0.185295343,2.6154449,0.196151897,2.6527667,-0.0108565539,-0.037321806,0.995980263,1.00899994,-1.60000002,-1.60000002,-3,-0.200000003,0,0,3.0999999,3,2.5,-2.80559084e-06,-5.26779149e-05,-6.7119603e-05,-5.09145102e-05,1.691746e-05,0,0,0.0377729647,0.04425909,0.226637781,0.266158968,0.226637781,0,-0,0.265554547,0.000604435452,0,1467,1933,1405,1449,6,-6,21.6700001,0,0.0199999996,0.540000021,0,0,1,-0.000636396057,0.000212132014
1.996496,1783679968.296981,33,-0.763026536,-0.318921566,24.6798725,0,0.046255827,0.00352413836,0.993720889,-0.0688223541,0.073179014,0.0160995051,145.835007,991.964294,0,0.487000018,0.203193292,2.66506982,0.19714351,2.64967656,0.00604978204,0.0153932571,0.996087432,0.982000053,-1.60000002,-1.60000002,-3,-0.200000003,0,0,3.0999999,3,2.5,0,0,0,3.39411199e-05,3.39411199e-05,0,0,0.0377729647,0.04425909,0.226637781,0.266158968,0.226637781,0,-0,0.265554547,0.000604435452,0,1467,1933,1405,1449,6,-6,21.6700001,0,0.0199999996,0.540000021,0,0,1,0.000424264028,0.000424264028
2.028036,1783679968.328521,34,-0.765330911,-0.308330297,24.6800785,0,0.0476912186,0.00268046092,0.994550705,-0.0244938396,-0.101766959,0.024547115,145.88501,991.964294,0,0.107000008,0.154420212,2.74536419,0.195025712,2.6599853,-0.0406055003,0.0853788853,0.99598819,1.00699997,-1.60000002,-1.60000002,-3,-0.200000003,0,0,3.0999999,3,2.5,0,0,0,-1.697056e-05,-1.697056e-05,0,0,0.0377729647,0.04425909,0.226637781,0.266158968,0.226637781,0,-0,0.265554547,0.000604435452,0,1467,1933,1405,1449,6,-6,21.6700001,0,0.0199999996,0.540000021,0,0,1,-0.000212132014,-0.000212132014
2.090193,1783679968.390677,35,-0.765913248,-0.310399532,24.6804085,0,0.0458822288,0.00379302795,0.994578004,-0.0270294026,0.0249426551,0.0224294197,145.935013,991.960327,0,0.66900003,0.218508199,2.64129782,0.19418256,2.6583271,0.024325639,-0.0170292854,0.995976269,1.00999999,-1.60000002,-1.60000002,-3,-0.200000003,0,0,3.0999999,3,2.5,0,0,0,-5.09116835e-05,1.697056e-05,0,0,0.0377729647,0.04425909,0.226637781,0.266158968,0.226637781,0,-0,0.265554547,0.000604435452,0,1467,1933,1405,1449,6,-6,21.6700001,0,0.0199999996,0.540000021,0,0,1,-0.000636396057,0.000212132014
2.153428,1783679968.453912,36,-0.764548421,-0.313314915,24.6808815,0,0.0448285267,0.0026440369,0.994563282,-0.0191086084,-0.0310981125,0.0167687461,145.985001,991.960327,0,0.249000013,0.152319923,2.58077002,0.19581981,2.6556437,-0.043499887,-0.0748736858,0.99598819,1.00699997,-1.60000002,-1.60000002,-3,-0.200000003,0,0,3.0999999,3,2.5,0,0,0,-3.39411199e-05,-3.39411199e-05,0,0,0.0377729647,0.04425909,0.226637781,0.266158968,0.226637781,0,-0,0.265554547,0.000604435452,0,1467,1933,1405,1449,6,-6,21.6700001,0,0.0199999996,0.540000021,0,0,1,-0.000424264028,-0.000424264028
2.216585,1783679968.517070,37,-0.764074981,-0.325177908,24.6820393,0,0.0448319018,0.0037755596,0.993702114,-0.0777986422,-0.109263033,0.0756263435,146.035004,991.960327,0,0.882000029,0.217693597,2.5831883,0.196031556,2.64372373,0.0216620415,-0.0605354309,0.995976269,1.00999999,-1.60000002,-1.60000002,-3,-0.200000003,0,0,3.0999999,3,2.5,-5.11246944e-05,0.000124163038,-6.09397903e-05,-1.70220937e-05,-1.68454044e-05,0,0,0.0377729647,0.04425909,0.226637781,0.266158968,0.226637781,0,-0,0.265554547,0.000604435452,0,1467,1933,1405,1449,6,-6,21.6700001,0,0.0199999996,0.540000021,0,0,1,-0.000212132014,-0.000212132014
2.248105,1783679968.548590,38,-0.764372766,-0.332136631,24.6833324,0,0.0450426489,0.00269092433,0.994506299,-0.00876289234,0.018929407,-0.0179754756,146.085007,991.960327,0,0.452000022,0.155029923,2.5932281,0.195985377,2.6366961,-0.0409554541,-0.0434679985,0.995984197,1.00800002,-1.60000002,-1.60000002,-3,-0.200000003,0,0,3.0999999,3,2.5,0,0,0,-1.697056e-05,-5.09116835e-05,0,0,0.0377729647,0.04425909,0.226637781,0.266158968,0.226637781,0,-0,0.265554547,0.000604435452,0,1467,1933,1405,1449,6,-6,21.6700001,0,0.0199999996,0.540000021,0,0,1,-0.000212132014,-0.000636396057
2.310552,1783679968.611037,39,-0.765296638,-0.342097282,24.684042,0,0.0450538248,0.00402285438,0.994036376,-0.039449323,-0.0924440399,0.0152288973,146.13501,991.960327,0,0.0840000063,0.231874153,2.59508348,0.194747955,2.626688,0.0371261984,-0.0316045284,0.995984197,1.00800002,-1.60000002,-1.60000002,-3,-0.200000003,0,0,3.0999999,3,2.5,0,0,0,3.39411199e-05,3.39411199e-05,0,0,0.0377729647,0.04425909,0.226637781,0.266158968,0.226637781,0,-0,0.265554547,0.000604435452,0,1467,1933,1405,1449,6,-6,21.6700001,0,0.0199999996,0.540000021,0,0,1,0.000424264028,0.000424264028
2.373167,1783679968.673652,40,-0.763267875,-0.342451572,24.684473,0,0.0463126563,0.00364359189,0.994674504,-0.0014865835,-0.0325299501,0.0226798113,146.185013,991.932556,0,0.671000004,0.20987922,2.66578364,0.19687362,2.62604713,0.0130055994,0.0397365093,0.995984197,1.00800002,-1.60000002,-1.60000002,-3,-0.200000003,0,0,3.0999999,3,2.5,0,0,0,5.09116871e-05,5.09116871e-05,0,0,0.0377729647,0.04425909,0.226637781,0.266158968,0.226637781,0,-0,0.265554547,0.000604435452,0,1467,1933,1405,1449,6,-6,21.6700001,0,0.0199999996,0.540000021,0,0,1,0.000636396115,0.000636396115
2.435184,1783679968.735668,41,-0.767059028,-0.336668253,24.685379,0,0.0452031456,0.00337776425,0.994571388,-0.0577062704,0.000453483313,7.30487518e-05,146.235001,991.932556,0,0.238000005,0.194587231,2.60228038,0.193128809,2.63210988,0.00145842135,-0.0298295021,0.995980263,1.00899994,-1.60000002,-1.60000002,-3,-0.200000003,0,0,3.0999999,3,2.5,0,0,0,0,0,0,0,0.0377729647,0.04425909,0.226637781,0.266158968,0.226637781,0,-0,0.265554547,0.000604435452,0,1467,1933,1405,1449,6,-6,21.6700001,0,0.0199999996,0.540000021,0,0,1,-0,-0
2.480333,1783679968.780818,42,-0.762000084,-0.340614796,24.6857967,0,0.0449524038,0.00392990373,0.994369745,0.0132324062,-0.0409248173,0.0608483218,146.285004,991.932556,0,0.866000056,0.226440653,2.58838391,0.198079586,2.62820363,0.0283610672,-0.0398197174,0.995980263,1.00899994,-1.60000002,-1.60000002,-3,-0.200000003,0,0,3.0999999,3,2.5,0.000152624852,9.31795003e-05,-7.64465367e-05,1.71283737e-05,-1.68742117e-05,0,0,0.0377729647,0.04425909,0.226637781,0.266158968,0.226637781,0,-0,0.265554547,0.000604435452,0,1467,1933,1405,1449,6,-6,21.6700001,0,0.0199999996,0.540000021,0,0,1,0.000212132014,-0.000212132014
2.542354,1783679968.842839,43,-0.765273273,-0.342382431,24.6866913,0,0.0461381711,0.0030685633,0.994061232,-0.0902774781,0.0113808624,0.0166526586,146.335007,991.932556,0,0.455000013,0.176865533,2.6573956,0.194991186,2.62615371,-0.0181256533,0.0312418938,0.996095359,0.980000019,-1.60000002,-1.60000002,-3,-0.200000003,0,0,3.0999999,3,2.5,0,0,0,3.39411199e-05,-3.39411199e-05,0,0,0.0377729647,0.04425909,0.226637781,0.266158968,0.226637781,0,-0,0.265554547,0.000604435452,0,1467,1933,1405,1449,6,-6,21.6700001,0,0.0199999996,0.540000021,0,0,1,0.000424264028,-0.000424264028
2.618194,1783679968.918679,44,-0.765582263,-0.341674566,24.6869507,0,0.0448682532,0.00313560921,0.994532228,0.0443000235,-0.0145463571,-0.00163513655,146.38501,991.932556,0,0.074000001,0.180644304,2.58313084,0.194670811,2.62717009,-0.0140265077,-0.0440392494,0.995766044,1.06299996,-1.60000002,-1.60000002,-3,-0.200000003,0,0,3.0999999,3,2.5,0,0,0,0,0,0,0,0.0377729647,0.04425909,0.226637781,0.266158968,0.226637781,0,-0,0.265554547,0.000604435452,0,1467,1933,1405,1449,6,-6,21.6700001,0,0.0199999996,0.540000021,0,0,1,-0,-0
2.652624,1783679968.953109,45,-0.76725769,-0.344362736,24.6880646,0,0.0456687473,0.00326814339,0.994197369,-0.118351676,0.0447930992,0.0131753907,146.435013,991.940491,0,0.629000008,0.188343033,2.6300354,0.192954555,2.62427235,-0.00461152196,0.00576305389,0.995980263,1.00899994,-1.60000002,-1.60000002,-3,-0.200000003,0,0,3.0999999,3,2.5,0,0,0,-1.697056e-05,1.697056e-05,0,0,0.0377729647,0.04425909,0.226637781,0.266158968,0.226637781,0,-0,0.265554547,0.000604435452,0,1467,1933,1405,1449,6,-6,21.6700001,0,0.0199999996,0.540000021,0,0,1,-0.000212132014,0.000212132014
2.760469,1783679969.060954,46,-0.761054337,-0.33049655,24.6891308,0,0.0475091785,0.00350911892,0.994986773,-0.0311555974,0.0205649324,0.0381802171,146.485001,991.940491,0,0.214000016,0.202069893,2.73369741,0.199127555,2.63777614,0.00294233859,0.095921278,0.995980263,1.00899994,-1.60000002,-1.60000002,-3,-0.200000003,0,0,3.0999999,3,2.5,0,0,0,-3.39411199e-05,3.39411199e-05,0,0,0.0377729647,0.04425909,0.226637781,0.266158968,0.226637781,0,-0,0.265554547,0.000604435452,0,1467,1933,1405,1449,6,-6,21.6700001,0,0.0199999996,0.540000021,0,0,1,-0.000424264028,0.000424264028
2.791483,1783679969.091968,47,-0.765666664,-0.325256109,24.6897907,0,0.0460965522,0.00278506032,0.994597495,-0.0464348495,-0.0519303009,0.0230632834,146.535004,991.940491,0,0.851000011,0.160438552,2.65357494,0.194664761,2.64336085,-0.0342262089,0.0102140903,0.995976269,1.00999999,-1.60000002,-1.60000002,-3,-0.200000003,0,0,3.0999999,3,2.5,0,0,0,-3.39411199e-05,3.39411199e-05,0,0,0.0377729647,0.04425909,0.226637781,0.266158968,0.226637781,0,-0,0.265554547,0.000604435452,0,1467,1933,1405,1449,6,-6,21.6700001,0,0.0199999996,0.540000021,0,0,1,-0.000424264028,0.000424264028
2.822223,1783679969.122708,48,-0.761088967,-0.319606543,24.6904736,0,0.0456669964,0.00373207731,0.994466722,-0.0208252296,0.044530008,-0.00938957743,146.585007,991.940491,0,0.44600001,0.215021044,2.62921906,0.199040577,2.64913154,0.0159804672,-0.0199124813,0.99598819,1.00699997,-1.60000002,-1.60000002,-3,-0.200000003,0,0,3.0999999,3,2.5,0,0,0,1.697056e-05,1.697056e-05,0,0,0.0377729647,0.04425909,0.226637781,0.266158968,0.226637781,0,-0,0.265554547,0.000604435452,0,1467,1933,1405,1449,6,-6,21.6700001,0,0.0199999996,0.540000021,0,0,1,0.000212132014,0.000212132014
2.885636,1783679969.186121,49,-0.760413885,-0.318038702,24.6912918,0,0.0464750305,0.00252761273,0.9950881,-0.0580504648,-0.072996892,0.0472396873,146.63501,991.940491,0,0.0690000057,0.145536095,2.67401552,0.200000271,2.65052462,-0.0544641763,0.0234909058,0.995952487,1.01600003,-1.60000002,-1.60000002,-3,-0.200000003,0,0,3.0999999,3,2.5,0.000116270188,-4.22414405e-06,9.97924872e-05,-5.07935547e-05,1.6966269e-05,0,0,0.0377729647,0.04425909,0.226637781,0.266158968,0.226637781,0,-0,0.265554547,0.000604435452,0,1467,1933,1405,1449,6,-6,21.6700001,0,0.0199999996,0.540000021,0,0,1,-0.000636396057,0.000212132014
2.948704,1783679969.249189,50,-0.759570837,-0.309562206,24.6922188,0,0.0471495241,0.00321815652,0.994796932,-0.0328214392,0.0750798583,0.00570448395,146.685013,991.968262,0,0.646000028,0.185350537,2.71355319,0.200684473,2.65887642,-0.0153339356,0.0546767712,0.995984197,1.00800002,-1.60000002,-1.60000002,-3,-0.200000003,0,0,3.0999999,3,2.5,0,0,0,-6.78822471e-05,3.39411272e-05,0,0,0.0377729647,0.04425909,0.226637781,0.266158968,0.226637781,0,-0,0.265554547,0.000604435452,0,1467,1933,1405,1449,6,-6,21.6700001,0,0.0199999996,0.540000021,0,0,1,-0.000848528114,0.000424264115
3.011378,1783679969.311862,51,-0.760669887,-0.293912888,24.6925259,0,0.0489016995,0.00284154573,0.994981825,-0.0416229367,-0.0707790405,0.00608989084,146.735001,991.968262,0,0.236000016,0.163629264,2.81371665,0.199668556,2.67418504,-0.0360392928,0.139531612,0.995984197,1.00800002,-1.60000002,-1.60000002,-3,-0.200000003,0,0,3.0999999,3,2.5,0,0,0,0,0,0,0,0.0377729647,0.04425909,0.226637781,0.266158968,0.226637781,0,-0,0.265554547,0.000604435452,0,1467,1933,1405,1449,6,-6,21.6700001,0,0.0199999996,0.540000021,0,0,1,-0,-0
3.073086,1783679969.373570,52,-0.760290384,-0.287971497,24.6936302,0,0.045353394,0.00314169098,0.995150685,-0.0218937192,-0.0269998834,0.0190517772,146.785004,991.968262,0,0.857000053,0.180882201,2.60940218,0.19998005,2.68097425,-0.0190978497,-0.0715720654,0.995980263,1.00899994,-1.60000002,-1.60000002,-3,-0.200000003,0,0,3.0999999,3,2.5,0,0,0,0,0,0,0,0.0377729647,0.04425909,0.226637781,0.266158968,0.226637781,0,-0,0.265554547,0.000604435452,0,1467,1933,1405,1449,6,-6,21.6700001,0,0.0199999996,0.540000021,0,0,1,-0,-0
3.134704,1783679969.435189,53,-0.763321102,-0.289825916,24.6945267,0,0.0476037897,0.00331795914,0.994601548,-0.0267067514,0.0149284201,0.0337044708,146.835007,991.968262,0,0.428000033,0.191136196,2.74019408,0.196895123,2.67859125,-0.00575892627,0.0616028309,0.996087432,0.982000053,-1.60000002,-1.60000002,-3,-0.200000003,0,0,3.0999999,3,2.5,0,0,0,-1.697056e-05,1.697056e-05,0,0,0.0377729647,0.04425909,0.226637781,0.266158968,0.226637781,0,-0,0.265554547,0.000604435452,0,1467,1933,1405,1449,6,-6,21.6700001,0,0.0199999996,0.540000021,0,0,1,-0.000212132014,0.000212132014
3.166604,1783679969.467088,54,-0.759834647,-0.280558109,24.6959324,0,0.0464694351,0.00400395179,0.994672,-0.0654701144,-0.0632940456,0.0132922297,146.88501,991.968262,0,0.0670000017,0.230637133,2.67479777,0.200234547,2.6881547,0.0304025859,-0.0133569241,0.995904863,1.028,-1.60000002,-1.60000002,-3,-0.200000003,0,0,3.0999999,3,2.5,-5.10692598e-06,9.12813848e-05,8.68034404e-05,-5.24992005e-09,9.38372651e-08,0,0,0.0377729647,0.04425909,0.226637781,0.266158968,0.226637781,0,-0,0.265554547,0.000604435452,0,1467,1933,1405,1449,6,-6,21.6700001,0,0.0199999996,0.540000021,0,0,1,-0,-0
3.229566,1783679969.530051,55,-0.760121763,-0.277650118,24.696579,0,0.0464809388,0.00296743307,0.994053543,-0.0174075589,0.0350166187,0.034834832,146.935013,991.892883,0,0.632000029,0.171037957,2.67713094,0.200185761,2.69106245,-0.0291478038,-0.0139315128,0.996095359,0.980000019,-1.60000002,-1.60000002,-3,-0.200000003,0,0,3.0999999,3,2.5,0,0,0,-1.697056e-05,1.697056e-05,0,0,0.0377729647,0.04425909,0.226637781,0.266158968,0.226637781,0,-0,0.265554547,0.000604435452,0,1467,1933,1405,1449,6,-6,21.6700001,0,0.0199999996,0.540000021,0,0,1,-0.000212132014,0.000212132014
3.305925,1783679969.606410,56,-0.762475729,-0.267188787,24.697403,0,0.0484120473,0.00334192137,0.994536996,-0.0318668745,-0.0435237102,0.0232004728,146.985001,991.892883,0,0.184000015,0.192529067,2.78682709,0.197738901,2.70112514,-0.00520983338,0.0857019424,0.995984197,1.00800002,-1.60000002,-1.60000002,-3,-0.200000003,0,0,3.0999999,3,2.5,0,0,0,-5.09116871e-05,5.09116871e-05,0,0,0.0377729647,0.04425909,0.226637781,0.266158968,0.226637781,0,-0,0.265554547,0.000604435452,0,1467,1933,1405,1449,6,-6,21.6700001,0,0.0199999996,0.540000021,0,0,1,-0.000636396115,0.000636396115
3.368911,1783679969.669395,57,-0.762851238,-0.256654978,24.6979237,0,0.0468954295,0.00271145557,0.994202375,-0.0251082592,0.0231382344,0.034708716,147.035004,991.892883,0,0.820000052,0.15626052,2.70056701,0.197508246,2.71204925,-0.0412477255,-0.0114822388,0.995980263,1.00899994,-1.60000002,-1.60000002,-3,-0.200000003,0,0,3.0999999,3,2.5,0,0,0,-3.39411199e-05,3.39411199e-05,0,0,0.0377729647,0.04425909,0.226637781,0.266158968,0.226637781,0,-0,0.265554547,0.000604435452,0,1467,1933,1405,1449,6,-6,21.6700001,0,0.0199999996,0.540000021,0,0,1,-0.000424264028,0.000424264028
3.430806,1783679969.731290,58,-0.764443994,-0.245972633,24.6986942,0,0.0479983948,0.00339644239,0.994221985,-0.070427984,-0.01197749,0.018746525,147.085007,991.892883,0,0.398000032,0.195731997,2.76392579,0.19574976,2.7225194,-1.77621841e-05,0.0414063931,0.99598819,1.00699997,-1.60000002,-1.60000002,-3,-0.200000003,0,0,3.0999999,3,2.5,0,0,0,-1.697056e-05,1.697056e-05,0,0,0.0377729647,0.04425909,0.226637781,0.266158968,0.226637781,0,-0,0.265554547,0.000604435452,0,1467,1933,1405,1449,6,-6,21.6700001,0,0.0199999996,0.540000021,0,0,1,-0.000212132014,0.000212132014
3.462368,1783679969.762853,59,-0.764537573,-0.233762026,24.6999378,0,0.0481752306,0.00307292794,0.993921459,-0.0235886164,-0.0836262703,0.0462726355,147.13501,991.892883,0,0.0700000003,0.177142009,2.7749331,0.195731789,2.73473239,-0.0185897797,0.0402007103,0.995928586,1.02199996,-1.60000002,-1.60000002,-3,-0.200000003,0,0,3.0999999,3,2.5,-7.07227009e-05,-0.00010579035,0.0001143837,-7.22785956e-08,0.000101715254,0,0,0.0377729647,0.04425909,0.226637781,0.266158968,0.226637781,0,-0,0.265554547,0.000604435452,0,1467,1933,1405,1449,6,-6,21.6700001,0,0.0199999996,0.540000021,0,0,1,-0,0.00127279223
3.524992,1783679969.825477,60,-0.762878239,-0.233123064,24.7007198,0,0.0476745479,0.0033805503,0.994325936,-0.0359898582,0.0496960282,0.031028606,147.185013,991.95636,0,0.606000006,0.194795817,2.74501967,0.197325602,2.73549676,-0.00252978504,0.00952291489,0.995984197,1.00800002,-1.60000002,-1.60000002,-3,-0.200000003,0,0,3.0999999,3,2.5,0,0,0,-1.697056e-05,1.697056e-05,0,0,0.0377729647,0.04425909,0.226637781,0.266158968,0.226637781,0,-0,0.265554547,0.000604435452,0,1467,1933,1405,1449,6,-6,21.6700001,0,0.0199999996,0.540000021,0,0,1,-0.000212132014,0.000212132014
3.587515,1783679969.888000,61,-0.761000812,-0.22953105,24.7016697,0,0.047940094,0.00360068399,0.994558036,-0.0195201952,-0.0828118771,0.00564705068,147.235001,991.95636,0,0.170000002,0.207431927,2.75964069,0.199159667,2.73904443,0.00827226043,0.0205962658,0.995984197,1.00800002,-1.60000002,-1.60000002,-3,-0.200000003,0,0,3.0999999,3,2.5,0,0,0,-3.39411199e-05,0,0,0,0.0377729647,0.04425909,0.226637781,0.266158968,0.226637781,0,-0,0.265554547,0.000604435452,0,1467,1933,1405,1449,6,-6,21.6700001,0,0.0199999996,0.540000021,0,0,1,-0.000424264028,-0
3.650650,1783679969.951134,62,-0.761826217,-0.231379986,24.7020473,0,0.0469839275,0.00293010427,0.994540393,-0.0339693874,0.125519678,-0.0799799338,147.285004,991.95636,0,0.802000046,0.168803722,2.70473623,0.198486894,2.73740983,-0.0296831727,-0.0326735973,0.995976269,1.00999999,-1.60000002,-1.60000002,-3,-0.200000003,0,0,3.0999999,3,2.5,0,0,0,-3.39411199e-05,3.39411199e-05,0,0,0.0377729647,0.04425909,0.226637781,0.266158968,0.226637781,0,-0,0.265554547,0.000604435452,0,1467,1933,1405,1449,6,-6,21.6700001,0,0.0199999996,0.540000021,0,0,1,-0.000424264028,0.000424264028
3.714201,1783679970.014686,63,-0.835997939,-0.323254824,24.7365131,0,0.0616782643,-0.000657252385,0.995830476,-0.722364724,-2.98739958,0.328819871,147.335007,991.95636,0,0.363000005,-0.0378154516,3.54417229,0.12484771,2.64178681,-0.162663162,0.902385473,0.995992124,1.00599992,-1.60000002,-1.60000002,-3,-0.200000003,0,0,3.0999999,3,2.5,0,0,0,0,3.39411199e-05,0,0,0.0377729647,0.04425909,0.226637781,0.266158968,0.226637781,0,-0,0.265554547,0.000604435452,0,1467,1933,1405,1449,6,-6,21.6700001,0,0.0199999996,0.540000021,0,0,1,-0,0.000424264028
3.745365,1783679970.045849,64,-0.729870558,-0.36951375,24.7280674,0,0.0146587603,0.0540877171,0.986026049,3.24187469,6.23679352,-2.45281839,147.38501,991.95636,0,0.0700000003,3.13977027,0.85044682,0.218394518,2.60631394,2.92137575,-1.75586712,0.995916784,1.02499998,-1.60000002,-1.60000002,-3,-0.200000003,0,0,3.0999999,3,2.5,-0.0104356846,-0.00722329086,-0.00201828009,-4.4637698e-05,2.65372473e-05,0,0,0.0377729647,0.04425909,0.226637781,0.266158968,0.226637781,0,-0,0.265554547,0.000604435452,0,1467,1933,1405,1449,6,-6,21.6700001,0,0.0199999996,0.540000021,0,0,1,-0.000424264028,0.000424264028
3.821861,1783679970.122345,65,-0.851003468,-0.353360653,24.6213951,0,0.0522495806,0.0225861967,1.03586864,0.417164236,-2.47390509,-3.95239139,147.435013,991.916687,0,0.587000012,1.24908566,2.88688731,0.104589626,2.61420131,1.14449608,0.272686005,0.995980263,1.00899994,-1.60000002,-1.60000002,-3,-0.200000003,0,0,3.0999999,3,2.5,0,0,0,0.000509116857,-0.000780645816,0,0,0.0377729647,0.04425909,0.226637781,0.266158968,0.226637781,0,-0,0.265554547,0.000604435452,0,1467,1933,1405,1449,6,-6,21.6700001,0,0.0199999996,0.540000021,0,0,1,0.00636396091,-0.00975807291
3.882473,1783679970.182958,66,-0.926073015,-0.209767342,24.6275768,0,0.0880986825,-0.0298284683,0.99406898,-0.959810495,1.18669844,0.459341884,147.485001,991.916687,0,0.147,-1.71872652,5.06230116,0.0411951169,2.74959445,-1.75992167,2.31270671,0.995980263,1.00899994,-1.60000002,-1.60000002,-3,-0.200000003,0,0,3.0999999,3,2.5,0,0,0,-6.78822398e-05,-6.78822398e-05,0,0,0.0377729647,0.04425909,0.226637781,0.266158968,0.226637781,0,-0,0.265554547,0.000604435452,0,1467,1933,1405,1449,6,-6,21.6700001,0,0.0199999996,0.540000021,0,0,1,-0.000848528056,-0.000848528056
3.944533,1783679970.245018,67,-0.924449742,-0.113352299,24.6426411,0,0.059890829,0.0240128916,1.00036573,-0.0258306675,-1.89406991,-0.668893635,147.535004,991.916687,0,0.756000042,1.37507033,3.42516351,0.0303330775,2.8530035,1.34473729,0.572160006,0.995976269,1.00999999,-1.60000002,-1.60000002,-3,-0.200000003,0,0,3.0999999,3,2.5,0,0,0,-0.000135764509,-3.39411272e-05,0,0,0.0377729647,0.04425909,0.226637781,0.266158968,0.226637781,0,-0,0.265554547,0.000604435452,0,1467,1933,1405,1449,6,-6,21.6700001,0,0.0199999996,0.540000021,0,0,1,-0.00169705634,-0.000424264115
3.990508,1783679970.290992,68,-0.887164712,-0.130408525,24.6829834,0,0.0499748737,-0.0252741054,0.985577047,-0.392677754,-1.73771501,4.36819029,147.585007,991.916687,0,0.347000003,-1.46896911,2.90181327,0.0792586654,2.83799291,-1.54822779,0.0638203621,0.995976269,1.00999999,-1.60000002,-1.60000002,-3,-0.200000003,0,0,3.0999999,3,2.5,0,0,0,-0.000135764494,6.78822544e-05,0,0,0.0377729647,0.04425909,0.226637781,0.266158968,0.226637781,0,-0,0.265554547,0.000604435452,0,1467,1933,1405,1449,6,-6,21.6700001,0,0.0199999996,0.540000021,0,0,1,-0.00169705623,0.000848528231
4.052866,1783679970.353350,69,-0.838670313,-0.276590586,24.6485004,0,0.0555738173,-0.0209178515,0.995069027,-0.127430946,0.917603135,0.129945874,147.63501,991.916687,0,0.0730000064,-1.20426631,3.19589877,0.125198379,2.69067097,-1.32946467,0.505227804,0.997235715,0.692999959,-1.60000002,-1.60000002,-3,-0.200000003,0,0,3.0999999,3,2.5,0.0344909877,0.268526524,0.0192400813,-0.000847187766,0.00605612388,0,0,0.000797956192,-0.0059415265,0.00478773704,-0.0356471948,0.00478773704,0,-0,-0.0356491581,1.96429482e-06,-0,1433,1876,1100,1615,6,-6,21.6700001,0,0.0199999996,0.540000021,0,0,1,-0.00275771646,0.00190918846
4.115766,1783679970.416250,70,-0.868404865,-0.187165499,24.6332836,0,0.146426409,0.0562861301,0.983787894,0.229282856,1.83730447,2.15115309,147.685013,991.964294,0,0.584000051,3.27453279,8.45209885,0.0789559931,2.75862885,3.19557691,5.69347,0.995984197,1.00800002,-1.60000002,-1.60000002,-3,-0.200000003,0,0,3.0999999,3,2.5,0.258556604,0.296721369,-0.0400987938,0.000728134299,0.019222863,0,0,-0.000467509264,-0.0189237688,-0.00280505558,-0.113527775,-0.00280505558,0,-0,-0.113542616,1.48392755e-05,-0,1429,1869,1100,1616,6,-6,21.6700001,0,0.0199999996,0.540000021,0,0,1,-0.00296984846,0.00212132046
4.147258,1783679970.447743,71,-0.799268961,-0.141196489,24.6592941,0,-0.0912721604,-0.0487746745,1.02416015,1.06006789,5.56902885,0.659775257,147.735001,991.964294,0,0.201000005,-2.72659802,-5.08695555,0.172567219,2.85937262,-2.89916515,-7.94632816,0.995984197,1.00800002,-1.60000002,-1.60000002,-3,-0.200000003,0,0,3.0999999,3,2.5,0.218909591,0.204472899,-0.0655499399,0.00355012924,0.0228742007,0,0,-0.00332946843,-0.0226680916,-0.0199768096,-0.135971934,-0.0199768096,0,-0,-0.136008546,3.6609883e-05,0,1371,1865,1100,1619,6,-6,21.6700001,0,0.0199999996,0.540000021,0,0,1,0.00148492411,0.00190918811
4.210129,1783679970.510614,72,-0.713735998,-0.118502855,24.6225433,0,0.129666597,0.063465111,1.01213217,-0.727003872,5.75652838,3.94258213,147.785004,991.964294,0,0.817000031,3.58799839,7.28637171,0.233024791,2.83232188,3.35497355,4.45405006,0.995996118,1.005,-1.60000002,-1.60000002,-3,-0.200000003,0,0,3.0999999,3,2.5,0.220134959,0.0223737378,-0.0877299383,0.00588837732,0.0261539724,0,0,-0.00566714164,-0.0261314865,-0.034002848,-0.156727135,-0.034002848,0,-0,-0.156788915,6.17857659e-05,-0,1430,1877,1100,1616,6,-6,21.6700001,0,0.0199999996,0.540000021,0,0,1,0.00424264045,0.00254558423
4.273662,1783679970.574146,73,-0.757862449,-0.179376125,24.5880013,0,0.133340985,-0.088392511,1.01934063,1.51919961,13.2872944,3.21931267,147.835007,991.964294,0,0.39200002,-4.95602751,7.42505074,0.222634763,2.77103567,-5.1786623,4.65401506,0.996079385,0.984000027,-1.60000002,-1.60000002,-3,-0.200000003,0,0,3.0999999,3,2.5,0.104948103,0.169532895,0.0248441827,0.00459110923,0.0258141551,0,0,-0.00448784046,-0.0256473348,-0.0269270428,-0.153796092,-0.0269270428,0,0,-0.153884009,8.79200306e-05,0,1367,1867,1100,1618,6,-6,21.6700001,0,0.0199999996,0.540000021,0,0,1,0.0148492437,0.0101823378
4.336181,1783679970.636666,74,-0.794603705,-0.423015356,24.5532684,0,-0.0202524252,0.0333437696,0.965741515,-2.14462376,2.05982256,-0.852305889,147.88501,991.964294,0,0.0860000029,1.97744286,-1.20065022,0.159270287,2.55870986,1.81817257,-3.75936007,0.996524155,0.871999979,-1.60000002,-1.60000002,-3,-0.200000003,0,0,3.0999999,3,2.5,-0.249763459,0.132596597,0.00416629016,-0.00260876981,0.0302144047,0,0,0.00213338947,-0.0299248993,0.0128003368,-0.179433286,0.0128003368,0,0,-0.179549396,0.000116106938,-0,1418,1870,1100,1615,6,-6,21.6700001,0,0.0199999996,0.540000021,0,0,1,0.0129400538,0.00530330185
4.399324,1783679970.699809,75,-0.873813152,-0.445068836,24.5056496,0,0.0789263844,-0.0432803854,0.98708874,1.6202631,-2.772789,0.253992081,147.935013,991.952393,0,0.535000026,-2.5106113,4.56720304,0.0968516022,2.51534939,-2.60746288,2.05185366,0.995984197,1.00800002,-1.60000002,-1.60000002,-3,-0.200000003,0,0,3.0999999,3,2.5,-0.069789201,0.189180583,0.0237815734,-0.0029282961,0.0303610563,0,0,0.00285794865,-0.0301703624,0.0171476919,-0.180874825,0.0171476919,0,-0,-0.181022167,0.000147346887,0,1461,1857,1100,1615,6,-6,21.6700001,0,0.0199999996,0.540000021,0,0,1,0.000636396057,0.00106066011
4.461047,1783679970.761532,76,-0.862393975,-0.188331842,24.4988174,0,0.0548260212,-0.0602827854,1.01510859,0.273513973,-0.569457531,-1.0280174,147.985001,991.952393,0,0.144000009,-3.39855027,3.08611512,0.111910827,2.77909207,-3.51046109,0.307023048,0.995980263,1.00899994,-1.60000002,-1.60000002,-3,-0.200000003,0,0,3.0999999,3,2.5,0.157786086,0.0818606615,0.0414643399,0.00534885796,0.0306998622,0,0,-0.00518965162,-0.030617265,-0.0311379097,-0.183525234,-0.0311379097,0,-0,-0.183703586,0.000178349408,-0,1441,1875,1100,1614,6,-6,21.6700001,0,0.0199999996,0.540000021,0,0,1,0.00190918811,0.00190918811
4.492177,1783679970.792662,77,-0.819130778,-0.16472888,24.4966717,0,0.00448868703,0.0132204778,0.998342335,-0.837046564,-2.57564664,-1.06146801,148.035004,991.952393,0,0.654000044,0.758690953,0.257585526,0.138169959,2.81585646,0.620521009,-2.55827093,0.995337844,1.171,-1.60000002,-1.60000002,-3,-0.200000003,0,0,3.0999999,3,2.5,0.0374426618,-0.0543674193,0.0695594102,0.0102219824,0.0262007006,0,0,-0.0101781366,-0.0262643639,-0.061068818,-0.157378823,-0.061068818,0,0,-0.157586187,0.000207370089,0,1464,1880,1100,1616,6,-6,21.6700001,0,0.0199999996,0.540000021,0,0,1,0.000636396057,-0.000212132014
4.553941,1783679970.854426,78,-0.865318,-0.1836586,24.5022049,0,-0.0269123148,0.0424468741,1.0087961,-1.92111742,-0.650010586,0.396499872,148.085007,991.952393,0,0.651000023,2.40939975,-1.52680433,0.085515596,2.80243683,2.32388425,-4.32924128,0.995972216,1.01100004,-1.60000002,-1.60000002,-3,-0.200000003,0,0,3.0999999,3,2.5,-0.0468578152,0.00880261697,0.0312285032,0.0114406208,0.0255908575,0,0,-0.0114879943,-0.0255819578,-0.0689279661,-0.153258473,-0.0689279661,0,-0,-0.15349175,0.000233274637,-0,1439,1885,1100,1616,6,-6,21.6700001,0,0.0199999996,0.540000021,0,0,1,-0.000636396115,-0.000636396115
4.662072,1783679970.962557,79,-0.835497677,-0.20930934,24.5144863,0,-0.0222623348,0.0025103204,1.02995396,-1.03348875,-0.979017496,-1.16019082,148.13501,991.952393,0,0.0890000015,0.139647484,-1.23824501,0.124654047,2.77057409,0.0149934366,-4.0088191,0.997199893,0.701999962,-1.60000002,-1.60000002,-3,-0.200000003,0,0,3.0999999,3,2.5,-0.0900426656,-0.0425626785,0.0160118509,0.00882850867,0.022215046,0,0,-0.00895675272,-0.0223043449,-0.0537405163,-0.133568332,-0.0537405163,0,0,-0.133826077,0.000257747422,0,1414,1880,1100,1617,6,-6,21.6700001,0,0.0199999996,0.540000021,0,0,1,0.000848527998,0.00212132023
4.694146,1783679970.994630,80,-0.829779506,-0.197401524,24.530159,0,-0.0119679552,0.0169079397,1.0415951,-0.992526293,1.16950345,1.75112772,148.185013,991.91272,0,0.84800005,0.929985642,-0.658214331,0.127190322,2.78508449,0.802795291,-3.44329882,0.995984197,1.00800002,-1.60000002,-1.60000002,-3,-0.200000003,0,0,3.0999999,3,2.5,-0.0154979862,-0.0344549865,0.0193493627,0.00678008003,0.0199809279,0,0,-0.00679570204,-0.0200156588,-0.0407742113,-0.119814835,-0.0407742113,0,-0,-0.120093957,0.000279119995,0,1409,1883,1100,1618,6,-6,21.6700001,0,0.0199999996,0.540000021,0,0,1,-0.000848528114,0.00466690445
4.724715,1783679971.025199,81,-0.800026655,-0.222559929,24.5283585,0,0.0320099741,-0.0243465416,1.02657306,0.606387854,-3.78098965,-0.463252306,148.235001,991.91272,0,0.123000003,-1.35859084,1.78548169,0.1662907,2.74997139,-1.5248816,-0.964489698,0.995984197,1.00800002,-1.60000002,-1.60000002,-3,-0.200000003,0,0,3.0999999,3,2.5,-0.0746616572,-0.025267195,-0.0422207043,0.00489853323,0.0154507197,0,0,-0.00497379201,-0.0154761886,-0.029842753,-0.0925598964,-0.029842753,0,0,-0.0928571299,0.000297236256,0,1451,1870,1100,1613,6,-6,21.6700001,0,0.0199999996,0.540000021,0,0,1,-0.00318198022,0.00275771623
4.787347,1783679971.087832,82,-0.827199697,-0.214251995,24.5096817,0,0.129917815,0.00947007164,0.949266553,0.375137508,-1.76392579,3.17224526,148.285004,991.91272,0,0.756000042,0.571575165,7.79277229,0.131225631,2.73409152,0.440349519,5.05868053,0.995984197,1.00800002,-1.60000002,-1.60000002,-3,-0.200000003,0,0,3.0999999,3,2.5,0.0143815242,0.0641546398,-0.0183860809,0.00380206946,0.013265457,0,0,-0.00378757296,-0.0132007888,-0.0227254368,-0.0788933709,-0.0227254368,0,0,-0.0792047307,0.000311362004,-0,1469,1869,1100,1616,6,-6,21.6700001,0,0.0199999996,0.540000021,0,0,1,0.00127279211,0.00212132023
4.850639,1783679971.151123,83,-0.830818534,-0.202445745,24.5144253,0,-0.0135095157,0.0291973799,1.02156556,-1.60698581,5.06222916,3.54731846,148.335007,991.91272,0,0.344000012,1.63712585,-0.757344663,0.12329594,2.78041935,1.51382995,-3.53776407,0.995984197,1.00800002,-1.60000002,-1.60000002,-3,-0.200000003,0,0,3.0999999,3,2.5,0.0129335336,-0.0160406623,0.0361597836,0.00234358408,0.0132896882,0,0,-0.0023305472,-0.0133058568,-0.0139832832,-0.0795103461,-0.0139832832,0,-0,-0.0798351392,0.000324792141,0,1395,1883,1100,1617,6,-6,21.6700001,0,0.0199999996,0.540000021,0,0,1,0.00445477245,0.00360624446
4.897035,1783679971.197520,84,-0.815636277,-0.205256224,24.5033302,0,0.0282233655,0.00973392092,0.995775759,-0.699653864,-3.10509777,-2.91621375,148.38501,991.91272,0,0.0860000029,0.56006068,1.62342751,0.143086508,2.7674377,0.416974187,-1.14401019,0.996472478,0.88499999,-1.60000002,-1.60000002,-3,-0.200000003,0,0,3.0999999,3,2.5,-0.0540209636,0.0179851204,-0.00612901431,0.00150321925,0.0121761458,0,0,-0.00160291675,-0.0121331066,-0.00961750001,-0.0724610612,-0.00961750001,0,-0,-0.0727986395,0.000337581441,0,1428,1882,1100,1614,6,-6,21.6700001,0,0.0199999996,0.540000021,0,0,1,0.00169705611,0.00169705611
4.959799,1783679971.260284,85,-0.758849442,-0.195294142,24.5139408,0,0.00479405001,0.0815119594,0.910251141,-0.154691964,2.42496157,-4.83889246,148.435013,991.972229,0,0.561000049,5.1171236,0.300556153,0.18148458,2.78335428,4.9356389,-2.4827981,0.995976269,1.00999999,-1.60000002,-1.60000002,-3,-0.200000003,0,0,3.0999999,3,2.5,-0.0470422208,-0.0565434545,0.0410337783,0.00174876139,0.00903302059,0,0,-0.00179627398,-0.00909012929,-0.0107776439,-0.054192286,-0.0107776439,0,0,-0.0545407757,0.00034848816,0,1445,1871,1100,1617,6,-6,21.6700001,0,0.0199999996,0.540000021,0,0,1,0.00254558446,0.00212132046
5.052897,1783679971.353381,86,-0.808445692,-0.162369251,24.5079517,0,0.0638888404,-0.024491787,1.03139806,-0.446018189,0.947548509,-3.81796932,148.485001,991.972229,0,0.148000002,-1.36030161,3.54359984,0.157838464,2.80331922,-1.51814008,0.740280628,0.99598819,1.00699997,-1.60000002,-1.60000002,-3,-0.200000003,0,0,3.0999999,3,2.5,0.0198637415,0.0690178201,-0.0636880994,-3.3825163e-06,0.00951845758,0,0,2.33853043e-05,-0.0094489567,0.000140311822,-0.0563360192,0.000140311822,0,-0,-0.0566937402,0.000357721205,-0,1418,1882,1100,1616,6,-6,21.6700001,0,0.0199999996,0.540000021,0,0,1,0.00148492423,0.00106066023
5.084948,1783679971.385432,87,-0.754654586,-0.160433531,24.5017738,0,0.074549228,0.0365298577,0.981795073,-0.876348555,1.46652961,-0.196012497,148.535004,991.972229,0,0.579000056,2.13083339,4.33923435,0.196382508,2.80094337,1.93445086,1.53829098,0.995266557,1.18900001,-1.60000002,-1.60000002,-3,-0.200000003,0,0,3.0999999,3,2.5,0.064954035,-0.0674493462,0.0933403596,0.000869072799,0.00877296552,0,0,-0.000791842467,-0.00885316264,-0.00475105457,-0.0527516417,-0.00475105457,0,-0,-0.053118974,0.00036733158,0,1452,1883,1100,1617,6,-6,21.6700001,0,0.0199999996,0.540000021,0,0,1,0.000212132014,0.000636396057
5.130937,1783679971.431421,88,-0.756612241,-0.148634434,24.5073147,0,0.09034504,0.0125150941,0.928867042,0.463104397,-0.271808684,2.74462986,148.585007,991.972229,0,0.292000026,0.771928251,5.55482388,0.201292172,2.80900788,0.570636094,2.74581599,0.99598819,1.00699997,-1.60000002,-1.60000002,-3,-0.200000003,0,0,3.0999999,3,2.5,0.0707346573,0.00535067637,-0.00610112771,0.00219528633,0.00678207725,0,0,-0.00212405645,-0.00677668909,-0.0127443392,-0.0402850397,-0.0127443392,0,-0,-0.0406601354,0.000375097588,-0,1449,1870,1100,1614,6,-6,21.6700001,0,0.0199999996,0.540000021,0,0,1,-0.000424264028,0.000424264028
5.193377,1783679971.493862,89,-0.767786145,-0.13010931,24.5286827,0,0.0384077802,-0.0165995508,1.02482522,0.827404678,-2.48984098,-2.60881162,148.63501,991.972229,0,0.251000017,-0.927964151,2.14601088,0.195428059,2.84041595,-1.12339222,-0.694405079,0.997311234,0.674000025,-1.60000002,-1.60000002,-3,-0.200000003,0,0,3.0999999,3,2.5,0.00325373979,0.0300381705,-0.0513579398,0.00297617214,0.00557199121,0,0,-0.00295940042,-0.00552631728,-0.0177564025,-0.0327765346,-0.0177564025,0,0,-0.0331579037,0.000381369668,0,1421,1874,1100,1616,6,-6,21.6700001,0,0.0199999996,0.540000021,0,0,1,0.00190918823,0.000212132174
5.256508,1783679971.556992,90,-0.772703767,-0.127109289,24.5131512,0,0.0136073604,-0.0282644723,1.04561543,-1.02041447,1.81983113,-1.16268754,148.685013,991.928589,0,0.509000003,-1.54840934,0.745317698,0.194495931,2.8500092,-1.74290526,-2.10469151,0.995980263,1.00899994,-1.60000002,-1.60000002,-3,-0.200000003,0,0,3.0999999,3,2.5,-0.00929632783,0.0478285551,0.0167553015,0.00331284199,0.00618041353,0,0,-0.00332222204,-0.00613215473,-0.0199333318,-0.0364058986,-0.0199333318,0,-0,-0.0367929265,0.000387026579,-0,1413,1884,1100,1614,6,-6,21.6700001,0,0.0199999996,0.540000021,0,0,1,0.00275771623,0.00106066
5.319229,1783679971.619714,91,-0.77424562,-0.121400833,24.5123081,0,0.0470195785,-0.003017582,1.0304184,-0.715297759,2.62939978,-2.92540336,148.735001,991.928589,0,0.122000009,-0.167790309,2.61267114,0.187374339,2.84820318,-0.355164647,-0.235532045,0.995984197,1.00800002,-1.60000002,-1.60000002,-3,-0.200000003,0,0,3.0999999,3,2.5,-0.0268129483,0.0185409375,0.0179660134,0.00330345775,0.00678022951,0,0,-0.0033304852,-0.00676154019,-0.0199829116,-0.0401756912,-0.0199829116,0,0,-0.0405692421,0.000393549883,0,1424,1883,1100,1617,6,-6,21.6700001,0,0.0199999996,0.540000021,0,0,1,0.00445477245,0.00148492411
5.381841,1783679971.682326,92,-0.785126567,-0.135193348,24.4712868,0,0.00322549511,-0.000707920641,1.03008616,-0.50043416,2.33174658,-6.26595592,148.785004,991.928589,0,0.21800001,-0.0393761806,0.179408893,0.175930902,2.84415531,-0.215307087,-2.66474652,0.99598819,1.00699997,-1.60000002,-1.60000002,-3,-0.200000003,0,0,3.0999999,3,2.5,0.0015204493,0.0120064048,0.015480822,0.00300370553,0.00743787456,0,0,-0.00296989037,-0.00741473027,-0.0178193413,-0.0440874957,-0.0178193413,0,-0,-0.0444883816,0.000400887657,-0,1434,1875,1100,1616,6,-6,21.6700001,0,0.0199999996,0.540000021,0,0,1,0.00487903692,0.000636395765
5.444652,1783679971.745137,93,-0.843785882,-0.183902025,24.3331509,0,-0.0187084489,-0.041336,1.01640844,-0.307954311,4.24487448,-5.84353065,148.835007,991.928589,0,0.286000013,-2.32886076,-1.05362082,0.126012653,2.79983306,-2.45487332,-3.85345387,0.996087432,0.982000053,-1.60000002,-1.60000002,-3,-0.200000003,0,0,3.0999999,3,2.5,-0.0232848097,0.050898999,0.119760163,0.00164615212,0.00756940711,0,0,-0.00166901783,-0.00751942443,-0.0100141075,-0.0447081327,-0.0100141075,0,-0,-0.0451165475,0.000408413034,0,1396,1876,1100,1615,6,-6,21.6700001,0,0.0199999996,0.540000021,0,0,1,0.0120915258,-0.00954594184
5.475764,1783679971.776249,94,-1.00145495,-0.175174236,24.1037464,0,-0.0253178813,-0.0425457396,1.09458876,-0.0308502018,-1.85963321,-15.1199894,148.88501,991.928589,0,0.0730000064,-2.22591782,-1.32401788,-0.0333003439,2.80848813,-2.19261742,-4.13250589,0.996369243,0.911000013,-1.60000002,-1.60000002,-3,-0.200000003,0,0,3.0999999,3,2.5,-0.118959635,0.127645656,-0.0400954112,0.00440615229,0.0110670943,0,0,-0.00459902128,-0.0108284028,-0.0275941268,-0.0645526946,-0.0275941268,0,-0,-0.0649704188,0.000417726173,-0,1425,1870,1100,1614,6,-6,21.6700001,0,0.0199999996,0.540000021,0,0,1,0.0195161477,-0.0237587877
5.537410,1783679971.837895,95,-1.25167036,-0.135201931,23.7877445,0,0.0319489315,-0.050600037,1.03652966,0.54179585,-9.45177269,-18.8362122,148.935013,991.896851,0,0.518000007,-2.79477668,1.7633692,-0.281373411,2.83777523,-2.51340318,-1.07440603,0.995980263,1.00899994,-1.60000002,-1.60000002,-3,-0.200000003,0,0,3.0999999,3,2.5,-0.190639257,0.22590819,0.0268665664,0.00752265844,0.0131347245,0,0,-0.00771501334,-0.0129067833,-0.046290081,-0.077010721,-0.046290081,0,-0,-0.0774407014,0.000429981854,0,1467,1867,1100,1607,6,-6,21.6700001,0,0.0199999996,0.540000021,0,0,1,0.0307591408,-0.0362745747
5.599546,1783679971.900031,96,-1.50189996,0.123708487,23.0563316,0,0.252657771,-0.00805330649,0.923451006,-0.928625226,-0.18582058,-24.647686,148.985001,991.896851,0,0.140000001,-0.499657065,15.3011866,-0.54187578,3.04314065,0.042218715,12.2580462,0.995984197,1.00800002,-1.60000002,-1.60000002,-3,-0.200000003,0,0,3.0999999,3,2.5,0.0922004506,0.222438142,0.111970268,0.0137241939,0.0177156441,0,0,-0.0136312563,-0.0174914263,-0.0817875415,-0.104502223,-0.0817875415,0,0,-0.104948558,0.000446337392,-0,1515,1880,1100,1608,6,-6,21.6700001,0,0.0199999996,0.540000021,0,0,1,0.0417900085,-0.0570635125
5.662150,1783679971.962635,97,-1.50819612,0.146097422,22.4342842,0,0.0377161615,-0.04437479,0.93702352,-0.91750443,1.93502641,-14.5216026,149.035004,991.896851,0,0.573000014,-2.71134067,2.30239224,-0.538059771,3.11848927,-2.17328095,-0.816097021,0.995425045,1.14900005,-1.60000002,-1.60000002,-3,-0.200000003,0,0,3.0999999,3,2.5,-0.125523224,-0.0147998873,-0.093903549,0.018312024,0.00749093341,0,0,-0.0184562504,-0.00750793843,-0.110737503,-0.0445869677,-0.110737503,0,-0,-0.0450476296,0.000460662181,0,1429,1892,1100,1606,6,-6,21.6700001,0,0.0199999996,0.540000021,0,0,1,0.0528208688,-0.0842164084
5.724755,1783679972.025240,98,-1.44179261,0.134759665,21.5761223,0,-0.00389386714,-0.0864144117,1.09181929,0.515535891,-9.33213997,-22.4798279,149.085007,991.896851,0,0.262000024,-4.52536535,-0.203701943,-0.465310693,3.11673903,-4.06005478,-3.32044101,0.99598819,1.00699997,-1.60000002,-1.60000002,-3,-0.200000003,0,0,3.0999999,3,2.5,-0.104509883,0.0101496428,0.0743574798,0.0189847071,-0.00514297048,0,0,-0.0190899484,0.00515319128,-0.11453969,0.0313815363,-0.11453969,0,0,0.0309191477,0.000462388649,0,1441,1878,1100,1608,6,-6,21.6700001,0,0.0199999996,0.540000021,0,0,1,0.0557907186,-0.0859134644
5.787425,1783679972.087909,99,-1.36553884,0.194386959,20.3397655,0,0.179006487,-0.0185429081,1.01406455,-2.13535571,-3.60436916,-24.9073353,149.13501,991.896851,0,0.557000041,-1.04757822,10.0092945,-0.401915699,3.1264863,-0.645662546,6.88280821,0.994688392,1.33500004,-1.60000002,-1.60000002,-3,-0.200000003,0,0,3.0999999,3,2.5,0.0805740505,-0.0256678089,-0.122851983,0.0268745366,-0.0219819006,0,0,-0.0268460922,0.021926498,-0.161076546,0.132008985,-0.161076546,0,-0,0.131558985,0.000449995627,0,1455,1900,1100,1599,6,-6,21.6700001,0,0.0199999996,0.540000021,0,0,1,0.0861256123,-0.12133953
5.819060,1783679972.119544,100,-1.23526955,0.266996384,18.8175583,0,-0.0147381322,-0.029146865,0.877385318,-2.6702323,1.62981844,-38.0952225,149.185013,991.928589,0,0.440000027,-1.90267432,-0.961821377,-0.268513441,3.25257874,-1.63416088,-4.21440029,0.995984197,1.00800002,-1.60000002,-1.60000002,-3,-0.200000003,0,0,3.0999999,3,2.5,-0.0244628377,-0.0460427701,0.182552636,0.0328272097,-0.0338774025,0,0,-0.0328518674,0.0338309929,-0.197111204,0.203408346,-0.197111204,0,-0,0.202985957,0.000422383659,0,1441,1906,1100,1584,6,-6,21.6700001,0,0.0199999996,0.540000021,0,0,1,0.0901561156,-0.114339165
5.880441,1783679972.180925,101,-1.17133927,0.17103076,16.3918781,0,-0.037892729,0.000729035586,1.11074078,-3.4051404,2.78992844,-49.7845421,149.235001,991.928589,0,0.157000005,0.0376061238,-1.95387745,-0.212150604,3.16026688,0.249756724,-5.11414433,0.995976269,1.00999999,-1.60000002,-1.60000002,-3,-0.200000003,0,0,3.0999999,3,2.5,-0.10022752,0.0185300298,-0.0483986437,0.0342154466,-0.0435576439,0,0,-0.0343166776,0.0435763597,-0.205900073,0.261840135,-0.205900073,0,0,0.261458158,0.000381970196,-0,1389,1916,1149,1561,6,-6,21.6700001,0,0.0199999996,0.540000021,0,0,1,0.117945418,-0.151038006
5.957704,1783679972.258188,102,-1.09209371,-0.0865185261,13.9143782,0,0.0391725004,-0.0433796495,1.09177923,-1.2699455,-6.05405474,-47.6813354,149.285004,991.928589,0,0.664000034,-2.27533555,2.05324411,-0.123249196,2.88548493,-2.15208626,-0.83224082,0.995980263,1.00899994,-1.60000002,-1.60000002,-3,-0.200000003,0,0,3.0999999,3,2.5,-0.270444751,0.0179958139,-0.101756416,0.0333802067,-0.048935689,0,0,-0.0336530842,0.0489538461,-0.201918513,0.294059843,-0.201918513,0,0,0.293723077,0.000336775585,0,1431,1902,1243,1541,6,-6,21.6700001,0,0.0199999996,0.540000021,0,0,1,0.120490998,-0.169705629
5.989711,1783679972.290195,103,-1.05336773,-0.151381254,12.2383051,0,0.195385456,0.0752392635,1.00396085,1.31428993,-5.04220819,-25.2016239,149.335007,991.928589,0,0.242000014,4.28587294,10.9828892,-0.110847682,2.78432083,4.39672041,8.19856834,0.995980263,1.00899994,-1.60000002,-1.60000002,-3,-0.200000003,0,0,3.0999999,3,2.5,-0.00746360421,-0.0513484254,0.029570654,0.042348817,-0.0689520687,0,0,-0.0423563495,0.0689002573,-0.254138112,0.413680375,-0.254138112,0,-0,0.413401544,0.00027882526,0,1480,1882,1247,1540,6,-6,21.6700001,0,0.0199999996,0.540000021,0,0,1,0.0969443396,-0.157614097
6.050790,1783679972.351274,104,-1.08098018,-0.236845732,11.1074228,0,-0.156207979,0.017341461,1.05096447,-4.15828085,-3.04781699,-26.2857666,149.38501,991.928589,0,0.79400003,0.945324421,-8.45301533,-0.125481576,2.78106976,1.07080603,-11.2340851,0.995615363,1.10099995,-1.60000002,-1.60000002,-3,-0.200000003,0,0,3.0999999,3,2.5,-0.284988165,0.00643050298,0.048178643,0.0442784689,-0.0704775527,0,0,-0.0448021293,0.0704552457,-0.268812776,0.422941834,-0.268812776,0,0,0.422731459,0.000210379352,0,1398,1926,1265,1418,6,-6,21.6700001,0,0.0199999996,0.540000021,0,0,1,0.00869741291,-0.0816708356
6.144917,1783679972.445401,105,-4.23740768,1.01961303,-0.937950075,0,0.0191618875,-0.0503036156,0.89031738,3.0490725,3.65195084,2.89587164,150.235001,991.928589,0,0.0690000057,-3.23381734,1.23099744,-3.27732277,3.99518657,0.0435054302,-2.76418924,0.997498214,0.626999974,-1.60000002,-1.60000002,-3,-0.200000003,0,0,3.0999999,3,2.5,-0.0152555732,0.279695213,0.632583857,0.0320376344,-0.105209172,0,0,-0.0320384279,0.105775118,-0.192230567,0.63284868,-0.192230567,0,0,0.634650707,-0.0018020384,-0,1479,1875,1440,1415,6,-6,21.6700001,0,0.0199999996,0.540000021,0,0,1,-0.00190918706,-0.0625789464
6.208228,1783679972.508713,106,-4.18564892,0.731619596,-0.750021756,0,0.119094431,0.00762933865,0.853729069,0.834474027,-10.517127,-0.146416187,150.285004,991.928589,0,0.0860000029,0.512009382,7.9411478,-3.24091291,3.68273783,3.7529223,4.25840998,0.995881081,1.03399992,-1.60000002,-1.60000002,-3,-0.200000003,0,0,3.0999999,3,2.5,-0.174224541,0.0878963172,0.583222389,0.0240876395,-0.0919780061,0,0,-0.0244965553,0.0921851173,-0.146979332,0.551210582,-0.146979332,0,0,0.553110719,-0.00190012355,-0,1469,1894,1433,1422,6,-6,21.6700001,0,0.0199999996,0.540000021,0,0,1,-0.0142128458,-0.0320319347
6.284849,1783679972.585334,107,-3.99386764,0.531772375,-0.690880358,0,0.00572391599,-0.0470477976,1.0234437,0.175701156,4.53213358,3.22362065,150.335007,991.928589,0,0.195000008,-2.63203931,0.320102483,-3.03529501,3.51326632,0.403255701,-3.19316387,0.995980263,1.00899994,-1.60000002,-1.60000002,-3,-0.200000003,0,0,3.0999999,3,2.5,-0.0789557248,0.0210072789,0.581621468,0.0131130284,-0.082725212,0,0,-0.0131926946,0.0827464089,-0.0791561678,0.494490594,-0.0791561678,0,0,0.496478438,-0.00198785146,-0,1416,1895,1435,1420,6,-6,21.6700001,0,0.0199999996,0.540000021,0,0,1,-0.0167584307,-0.0163341649
6.315118,1783679972.615602,108,-3.73674941,0.365956068,-0.80601567,0,0.148797065,-0.0178334303,0.78793335,2.23366046,-7.27939129,-9.61743641,150.38501,991.928589,0,0.305000007,-1.29656386,10.6913939,-2.78249955,3.30506921,1.48593569,7.38632488,0.996000051,1.00399995,-1.60000002,-1.60000002,-3,-0.200000003,0,0,3.0999999,3,2.5,-0.0168020353,-0.0822397247,0.339933306,0.00586358132,-0.0791495517,0,0,-0.00596329197,0.0789825246,-0.0357797518,0.471826345,-0.0357797518,0,0,0.473895133,-0.00206877687,0,1509,1879,1439,1416,6,-6,21.6700001,0,0.0199999996,0.540000021,0,0,1,-0.0163341668,-0.0133643178
6.377418,1783679972.677903,109,-3.76882863,0.227156401,-0.896735609,0,-0.0914683491,-0.0579753779,1.11569512,-0.671482086,-0.0279228687,-0.740775824,150.435013,991.920654,0,0.383000016,-2.97461152,-4.68052769,-2.80796385,3.22766709,-0.166647673,-7.90819454,0.995972216,1.01100004,-1.60000002,-1.60000002,-3,-0.200000003,0,0,3.0999999,3,2.5,-0.0801896453,0.136939049,0.368208289,-0.000121798934,-0.0662015155,0,0,4.07272055e-05,0.0663399622,0.00024436324,0.395896882,0.00024436324,0,0,0.398039758,-0.00214287057,-0,1413,1897,1436,1419,6,-6,21.6700001,0,0.0199999996,0.540000021,0,0,1,-0.0184554867,-0.0112429969
6.439408,1783679972.739893,110,-3.53119826,0.0274169445,-1.01500368,0,0.131796435,-0.0364929289,0.855036855,2.70017242,-6.20278263,-7.98131371,150.485001,991.920654,0,0.0840000063,-2.44389772,8.75483036,-2.57143998,2.97635674,0.127542257,5.77847385,0.996587634,0.856000006,-1.60000002,-1.60000002,-3,-0.200000003,0,0,3.0999999,3,2.5,-0.0967320874,-0.13541986,0.241941601,-0.00614293525,-0.0607374385,0,0,0.00588195259,0.0604475997,0.0352917165,0.360479951,0.0352917165,0,0,0.362685591,-0.00220562844,0,1515,1872,1444,1410,6,-6,21.6700001,0,0.0199999996,0.540000021,0,0,1,-0.0260922406,0.00572756492
6.470930,1783679972.771414,111,-3.49629521,-0.148544788,-1.24708176,0,0.00474944338,0.00583905354,1.13849258,2.57669616,-1.78198862,-4.20424509,150.535004,991.920654,0,0.513999999,0.293853641,0.239015967,-2.54839492,2.83132577,2.84224844,-2.59230971,0.995674789,1.08599997,-1.60000002,-1.60000002,-3,-0.200000003,0,0,3.0999999,3,2.5,-0.0781468302,-0.0215819385,-0.263074517,-0.0145677216,-0.0531371683,0,0,0.0144828539,0.0531137288,0.0868971199,0.316418707,0.0868971199,0,0,0.318682373,-0.00226366054,-0,1419,1866,1445,1410,6,-6,21.6700001,0,0.0199999996,0.540000021,0,0,1,-0.0231223926,0.000212131999
6.533278,1783679972.833763,112,-3.43534017,-0.215811968,-1.59341121,0,0.123649865,-0.065226391,0.98440814,6.21142912,-6.42515755,-7.35658073,150.585007,991.920654,0,0.172000006,-3.79084897,7.14382982,-2.46984172,2.73514175,-1.32100725,4.40868807,0.995984197,1.00800002,-1.60000002,-1.60000002,-3,-0.200000003,0,0,3.0999999,3,2.5,0.0235078558,-0.10921254,-0.200569198,-0.0160652082,-0.0506618172,0,0,0.0160889048,0.0505517311,0.0965334326,0.300994962,0.0965334326,0,0,0.303310394,-0.00231543812,0,1514,1833,1459,1394,6,-6,21.6700001,0,0.0199999996,0.540000021,0,0,1,-0.0201525427,0.0099702049
6.594756,1783679972.895240,113,-3.51920938,-0.328779221,-1.97389555,0,0.0753120109,0.0109514948,1.01450408,8.96156883,-1.20066643,-6.65454292,150.63501,991.920654,0,0.58100003,0.618479609,4.2453351,-2.57490325,2.63185191,3.19338274,1.61348319,0.99502486,1.25,-1.60000002,-1.60000002,-3,-0.200000003,0,0,3.0999999,3,2.5,0.0449045338,-0.103960827,-0.233204484,-0.0164553709,-0.0443535224,0,0,0.0165115017,0.0442235731,0.0990690142,0.262977749,0.0990690142,0,0,0.265341431,-0.00236367667,-0,1479,1810,1457,1396,6,-6,21.6700001,0,0.0199999996,0.540000021,0,0,1,-0.0178190898,0.00890954584
6.656478,1783679972.956963,114,-3.81892729,-0.555246115,-2.27406812,0,0.0743997246,-0.00418215245,0.939124048,10.4516497,-12.7863111,-11.6181278,150.685013,991.936523,0,0.68900001,-0.255150646,4.52960777,-2.86923122,2.40487981,2.61408067,2.12472796,0.995984197,1.00800002,-1.60000002,-1.60000002,-3,-0.200000003,0,0,3.0999999,3,2.5,-0.192315072,0.0677576065,-0.0809455812,-0.0196042713,-0.0378798656,0,0,0.0194104183,0.0379481651,0.116462514,0.225283071,0.116462514,0,0,0.227688998,-0.00240592845,-0,1515,1803,1459,1393,6,-6,21.6700001,0,0.0199999996,0.540000021,0,0,1,-0.0193040147,0.00954594184
6.719017,1783679973.019502,115,-4.09982395,-0.590594292,-2.44196439,0,-0.0530848801,-0.00416000653,1.1137718,10.7576122,0.159067154,-0.829936504,150.735001,991.936523,0,0.0860000029,-0.214002281,-2.72876215,-3.1470027,2.39093304,2.93300033,-5.11969519,0.997486353,0.629999995,-1.60000002,-1.60000002,-3,-0.200000003,0,0,3.0999999,3,2.5,-0.100273445,0.0248218831,0.00400423259,-0.0234294496,-0.0261447933,0,0,0.0233196244,0.0262200776,0.139917746,0.154882371,0.139917746,0,-0,0.15732047,-0.00243809656,-0,1458,1803,1455,1398,6,-6,21.6700001,0,0.0199999996,0.540000021,0,0,1,-0.0182433557,0.0182433557
6.780584,1783679973.081069,116,-4.28462267,-0.653862715,-2.55167675,0,0.0136123486,-0.0392957851,1.04700494,15.4601288,-5.35176563,-2.01794958,150.785004,991.936523,0,0.557000041,-2.14939427,0.74434948,-3.32915711,2.32111502,1.17976284,-1.57676554,0.995992124,1.00599992,-1.60000002,-1.60000002,-3,-0.200000003,0,0,3.0999999,3,2.5,-0.0609416068,-0.117094569,-0.232500359,-0.0233351048,-0.0231564716,0,0,0.0232737977,0.0230386741,0.13964279,0.135769546,0.13964279,0,0,0.138232052,-0.00246250955,0,1484,1803,1457,1396,6,-6,21.6700001,0,0.0199999996,0.540000021,0,0,1,-0.0178190898,0.0224859957
6.843198,1783679973.143683,117,-4.68811941,-0.686902046,-2.6397028,0,0.161974937,-0.00957487524,0.919151604,17.3080425,-3.88690567,-1.4937284,150.835007,991.936523,0,0.49000001,-0.59683311,9.99364662,-3.74021196,2.25149465,3.14337873,7.74215221,0.996091306,0.981000006,-1.60000002,-1.60000002,-3,-0.200000003,0,0,3.0999999,3,2.5,0.0806926414,0.00856882893,-0.290956527,-0.0241837446,-0.0155028142,0,0,0.0242629033,0.0155112203,0.145577416,0.090584293,0.145577416,0,-0,0.0930673182,-0.00248302845,-0,1515,1803,1463,1388,6,-6,21.6700001,0,0.0199999996,0.540000021,0,0,1,-0.0101823378,0.0428506732
6.874838,1783679973.175323,118,-5.06360197,-0.763179541,-2.68310213,0,-0.0623515323,-0.0353477523,1.1159637,21.1190853,-6.244349,0.988645852,150.88501,991.936523,0,0.768000007,-1.81421673,-3.19632626,-4.11263847,2.22725868,2.29842186,-5.42358494,0.995984197,1.00800002,-1.60000002,-1.60000002,-3,-0.200000003,0,0,3.0999999,3,2.5,-0.237408042,-0.100970551,-0.346181363,-0.0231031422,-0.0110088587,0,0,0.0228638351,0.01090708,0.137183011,0.0629464462,0.137183011,0,0,0.0654424801,-0.00249603624,0,1455,1803,1458,1394,6,-6,21.6700001,0,0.0199999996,0.540000021,0,0,1,-0.00487903878,0.0460326523
6.936731,1783679973.237216,119,-5.66516876,-0.861146212,-2.81229115,0,0.0759517699,-0.0429031663,0.997137427,23.5819473,-8.07597923,-5.65264463,150.935013,991.984131,0,0.664000034,-2.46370769,4.35178709,-4.71401167,2.09846306,2.25030398,2.25332403,0.995984197,1.00800002,-1.60000002,-1.60000002,-3,-0.200000003,0,0,3.0999999,3,2.5,-0.194383875,0.110433534,-0.0785069838,-0.0265385825,-0.00246256753,0,0,0.0263426434,0.00257388456,0.158055857,0.0129390517,0.158055857,0,-0,0.0154433073,-0.00250425562,-0,1493,1803,1465,1385,6,-6,21.6700001,0,0.0199999996,0.540000021,0,0,1,-0.001697056,0.0335168615
7.030880,1783679973.331365,120,-6.37607908,-0.710425377,-2.79866123,0,-0.00759724528,-0.108182579,1.11756563,21.2687225,3.98922944,6.42746878,150.985001,991.984131,0,0.0850000009,-5.52911806,-0.387680322,-5.41549635,2.26732421,-0.113621712,-2.6550045,0.996575773,0.859000027,-1.60000002,-1.60000002,-3,-0.200000003,0,0,3.0999999,3,2.5,0.0795354322,0.273569018,-0.157000065,-0.0264637507,0.0109576602,0,0,0.0266807992,-0.0104400422,0.160084799,-0.0651410297,0.160084799,0,-0,-0.0626402497,-0.00250077643,-0,1455,1803,1457,1396,6,-6,21.6700001,0,0.0199999996,0.540000021,0,0,1,0.00784888584,0.0383958966
7.062514,1783679973.362999,121,-7.03271389,-0.656368494,-2.37413192,0,0.0715977401,-0.0211195126,0.980393529,12.9932737,-6.90588474,5.25323009,151.035004,991.984131,0,0.809000015,-1.23406756,4.17590666,-6.09231901,2.3046639,4.85825157,1.87124276,0.995924711,1.023,-1.60000002,-1.60000002,-3,-0.200000003,0,0,3.0999999,3,2.5,-0.107708164,0.408352166,-0.335139096,-0.0221484657,0.0341522358,0,0,0.022038281,-0.033734493,0.132229686,-0.204886779,0.132229686,0,-0,-0.202406958,-0.00247982773,-0,1506,1803,1446,1409,6,-6,21.6700001,0,0.0199999996,0.540000021,0,0,1,0.00678822584,0.0683065131
7.123942,1783679973.424427,122,-7.21248436,-0.676657438,-1.56198049,0,0.066023007,-0.104107857,0.932488561,2.2536974,5.08763885,18.5223885,151.085007,991.984131,0,0.142000005,-6.37041712,4.02503157,-6.25181389,2.28500628,-0.11860323,1.74002528,0.995980263,1.00899994,-1.60000002,-1.60000002,-3,-0.200000003,0,0,3.0999999,3,2.5,-0.104233243,0.427829891,0.0893943608,-0.0262944363,0.0567600392,0,0,0.0261892658,-0.05632836,0.157135591,-0.340404451,0.157135591,0,0,-0.337970167,-0.0024342984,-0,1457,1841,1431,1424,6,-6,21.6700001,0,0.0199999996,0.540000021,0,0,1,0.00381837785,0.11073292
7.185087,1783679973.485572,123,-7.08350134,-0.610146284,-0.595804036,0,-0.107326582,-0.170270026,1.12218058,-12.6054354,5.46251535,25.0331116,151.13501,991.984131,0,0.563000023,-8.62775993,-5.40175867,-6.11146688,2.3952024,-2.51629305,-7.79696083,0.995294273,1.18200004,-1.60000002,-1.60000002,-3,-0.200000003,0,0,3.0999999,3,2.5,-0.271660984,0.625725091,-0.297033638,-0.0308124367,0.0857751817,0,0,0.0304913335,-0.0850355774,0.182947993,-0.512577116,0.182947993,0,0,-0.510213494,-0.00236363895,-0,1367,1951,1411,1444,6,-6,21.6700001,0,0.0199999996,0.540000021,0,0,1,0.0127279237,0.142976999
7.248233,1783679973.548717,124,-6.18631172,-0.239373684,0.40818283,0,0.0447667539,-0.125149801,0.972593427,-28.6044464,12.4393644,21.1497059,151.185013,991.861145,0,0.567000031,-7.3323226,2.61384273,-5.2176342,2.72974968,-2.1146884,-0.115906954,0.99598819,1.00699997,-1.60000002,-1.60000002,-3,-0.200000003,0,0,3.0999999,3,2.5,-0.0240491983,0.396625936,-0.0548352972,-0.0298925005,0.111355565,0,0,0.0298682824,-0.110956162,0.179209694,-0.668001413,0.179209694,0,0,-0.665736973,-0.00226443261,-0,1383,1951,1405,1449,6,-6,21.6700001,0,0.0199999996,0.540000021,0,0,1,0.0303348824,0.195373595
7.280311,1783679973.580796,125,-4.80456591,0.0245299339,1.24681997,0,0.080616571,-0.0947324857,0.914650559,-41.6307259,1.97973561,9.66539574,151.235001,991.861145,0,0.614000022,-5.9131732,5.01032352,-3.8391757,2.98812127,-2.0739975,2.02220225,0.99749434,0.628000021,-1.60000002,-1.60000002,-3,-0.200000003,0,0,3.0999999,3,2.5,-0.0839589909,0.304533243,0.134482265,-0.02437157,0.133008316,0,0,0.0241629593,-0.132382736,0.144977748,-0.796439528,0.144977748,0,-0,-0.794296384,-0.0021431495,-0,1405,1951,1397,1456,6,-6,21.6700001,0,0.0199999996,0.540000021,0,0,1,0.0364867225,0.253709912
7.343756,1783679973.644241,126,-3.18913174,0.175094128,1.86063075,0,0.0319292322,-0.124207817,1.00758958,-54.8102989,1.84510994,15.7282467,151.285004,991.861145,0,0.527999997,-7.02752495,1.80139673,-2.20957112,3.14916992,-4.81795406,-1.34777319,0.995980263,1.00899994,-1.60000002,-1.60000002,-3,-0.200000003,0,0,3.0999999,3,2.5,-0.128229156,0.322480083,0.246426225,-0.0245754384,0.150901809,0,0,0.0244460553,-0.150576428,0.146676332,-0.905459523,0.146676332,0,0,-0.903458595,-0.00200095517,-0,1394,1951,1393,1459,6,-6,21.6700001,0,0.0199999996,0.540000021,0,0,1,0.0530329943,0.371231079
7.406749,1783679973.707233,127,-1.15906346,0.372437239,2.25361514,0,-0.0474084541,-0.121027723,1.08371294,-64.5962677,11.6229229,5.74058914,151.335007,991.861145,0,0.106000006,-6.37231731,-2.48942614,-0.173978478,3.36460423,-6.19833899,-5.85403061,0.995984197,1.00800002,-1.60000002,-1.60000002,-3,-0.200000003,0,0,3.0999999,3,2.5,-0.131612718,0.0604909882,0.534265161,-0.0190561935,0.172682926,0,0,0.0189235285,-0.172621951,0.113541171,-1.03757071,0.113541171,0,-0,-1.03573167,-0.00183906953,-0,1367,1951,1392,1460,6,-6,21.6700001,0,0.0199999996,0.540000021,0,0,1,0.0606697649,0.416627288
7.469375,1783679973.769860,128,1.05297303,0.409295797,2.26025152,0,0.032000795,-0.064523913,0.878954589,-67.431694,9.70079517,-3.32107449,151.38501,991.861145,0,0.722000062,-4.19854307,2.07950115,2.03823686,3.38319468,-6.23678017,-1.30369353,0.995980263,1.00899994,-1.60000002,-1.60000002,-3,-0.200000003,0,0,3.0999999,3,2.5,-0.148678958,-0.165473059,0.673107922,-0.0266823694,0.170062736,0,0,0.026532352,-0.170229703,0.159194112,-1.02304494,0.159194112,0,0,-1.02137828,-0.001666661,0,1380,1951,1404,1450,6,-6,21.6700001,0,0.0199999996,0.540000021,0,0,1,0.0606697649,0.416627288
7.531853,1783679973.832338,129,3.17097998,0.699088812,1.81481266,0,0.15793094,-0.0257134866,0.770374119,-67.1219406,2.6351161,-22.7995529,151.435013,991.972229,0,0.364000022,-1.91170418,11.579155,4.15553856,3.63584805,-6.06724262,7.94330692,0.995984197,1.00800002,-1.60000002,-1.60000002,-3,-0.200000003,0,0,3.0999999,3,2.5,0.132995293,-0.327162981,0.398704678,-0.0282248575,0.157977968,0,0,0.0283589177,-0.158307746,0.170153499,-0.951348901,0.170153499,0,-0,-0.949846506,-0.00150237,0,1458,1951,1418,1437,6,-6,21.6700001,0,0.0199999996,0.540000021,0,0,1,0.0606697649,0.416627288
7.594382,1783679973.894867,130,5.0818553,0.879107237,0.995858133,0,0.0102590751,-0.0305809956,1.04138899,-56.8971672,-0.500859737,-15.2995567,151.485001,991.972229,0,0.405000031,-1.68204069,0.564178646,6.06738424,3.85853577,-7.74942493,-3.29435706,0.996730685,0.819999993,-1.60000002,-1.60000002,-3,-0.200000003,0,0,3.0999999,3,2.5,0.0212571975,-0.584720671,0.057408087,-0.0223095659,0.134155557,0,0,0.0223852675,-0.135349035,0.134311602,-0.813448846,0.134311602,0,-0,-0.812094212,-0.00135466282,0,1367,1951,1434,1421,6,-6,21.6700001,0,0.0199999996,0.540000021,0,0,1,0.0606697649,0.416627288
7.670755,1783679973.971240,131,6.16862202,0.860191822,-0.0476749837,0,0.0469529182,-0.00275818259,1.03042972,-50.4244537,6.64419842,-16.2653351,151.535004,991.972229,0,0.512000024,-0.153365001,2.60894537,7.15823555,3.83377838,-7.31160069,-1.22483301,0.995976269,1.00999999,-1.60000002,-1.60000002,-3,-0.200000003,0,0,3.0999999,3,2.5,0.0703831017,-0.381044656,-0.189384043,-0.0219571013,0.109777845,0,0,0.0220281892,-0.110162698,0.132169127,-0.66220969,0.132169127,0,-0,-0.660976171,-0.00123350695,0,1413,1951,1443,1412,6,-6,21.6700001,0,0.0199999996,0.540000021,0,0,1,0.0606697649,0.416627288
7.702471,1783679974.002956,132,6.75738859,0.844578505,-0.989234507,0,0.1053757,-0.0213329941,0.976463377,-41.066349,-3.47146773,-19.9889164,151.585007,991.972229,0,0.0980000049,-1.25155342,6.15781879,7.75378132,3.80377412,-9.00533485,2.35404468,0.995980263,1.00899994,-1.60000002,-1.60000002,-3,-0.200000003,0,0,3.0999999,3,2.5,0.10388419,-0.396767437,-0.267254442,-0.0187054686,0.0919014364,0,0,0.0188102871,-0.0923017785,0.112861723,-0.554943144,0.112861723,0,-0,-0.553810656,-0.00113251153,0,1488,1951,1455,1399,6,-6,21.6700001,0,0.0199999996,0.540000021,0,0,1,0.0606697649,0.416627288
7.765309,1783679974.065793,133,6.97398138,0.774256468,-1.77532816,0,0.0626328066,0.0180307701,1.00248921,-29.0576572,3.06495333,-10.6549797,151.63501,991.972229,0,0.597000003,1.03041077,3.57446146,7.96626377,3.74369764,-6.935853,-0.169236183,0.995373547,1.16199994,-1.60000002,-1.60000002,-3,-0.200000003,0,0,3.0999999,3,2.5,0.0828744918,-0.464848459,-0.211952969,-0.0107488437,0.0764710158,0,0,0.0108451443,-0.077011168,0.0650708675,-0.463112265,0.0650708675,0,-0,-0.462067008,-0.00104526768,0,1461,1951,1458,1395,6,-6,21.6700001,0,0.0199999996,0.540000021,0,0,1,-0.0574877933,-0.182221413
7.796322,1783679974.096806,134,6.58079195,0.432951927,-2.38835716,0,0.037678618,0.0533159971,1.05960321,-16.0119553,-6.38109112,-14.3665619,151.685013,991.948425,0,0.309000015,2.88051915,2.03396153,7.55977678,3.40712452,-4.67925739,-1.37316298,0.995984197,1.00800002,-1.60000002,-1.60000002,-3,-0.200000003,0,0,3.0999999,3,2.5,-0.298938334,-0.369761825,-0.401187181,-0.013526964,0.0671869144,0,0,0.0132256346,-0.0675596371,0.0793538094,-0.40633437,0.0793538094,0,0,-0.405357838,-0.000976519252,0,1462,1951,1461,1390,6,-6,21.6700001,0,0.0199999996,0.540000021,0,0,1,0.058548443,0.231648177
7.858544,1783679974.159029,135,5.79005861,0.576699734,-2.81109595,0,0.0923032388,-0.0619916059,0.998534799,-3.91840601,7.03934431,-1.39437532,151.735001,991.948425,0,0.683000028,-3.55251002,5.27124596,6.80720568,3.53581738,-10.3597155,1.73542857,0.994502425,1.38200009,-1.60000002,-1.60000002,-3,-0.200000003,0,0,3.0999999,3,2.5,0.0684582591,-0.296307445,-0.518941998,-0.0135976952,0.0572127029,0,0,0.0137919812,-0.0578188151,0.0827518851,-0.347823769,0.0827518851,0,-0,-0.346912891,-0.000910884002,0,1431,1900,1467,1383,6,-6,21.6700001,0,0.0199999996,0.540000021,0,0,1,0.0526087433,0.207889393
7.953739,1783679974.254224,136,4.57955551,0.543268919,-3.0129261,0,-0.00337322615,0.0479153171,1.02477396,6.61435699,4.88896799,-2.18528748,151.785004,991.948425,0,0.512000024,2.67702675,-0.188392788,5.55130291,3.52686143,-2.87427616,-3.71525431,0.995980263,1.00899994,-1.60000002,-1.60000002,-3,-0.200000003,0,0,3.0999999,3,2.5,-0.0940307155,-0.312515318,-0.403564125,-0.00592958601,0.0637164414,0,0,0.00583470892,-0.0640317723,0.0350082517,-0.385041744,0.0350082517,0,0,-0.384190619,-0.000851121731,0,1386,1804,1464,1387,6,-6,21.6700001,0,0.0199999996,0.540000021,0,0,1,0.0352139175,0.067033723
7.984810,1783679974.285295,137,3.14695835,0.585573912,-3.07949471,0,0.190154389,0.0311810337,0.876094282,18.6282482,-2.90856242,-6.72221613,151.835007,991.948425,0,0.0940000042,2.0383513,12.2384682,4.11527824,3.5201211,-2.07692695,8.71834755,0.996087432,0.982000053,-1.60000002,-1.60000002,-3,-0.200000003,0,0,3.0999999,3,2.5,0.0456456505,-0.262253881,-0.293021411,-0.00158017618,0.0644487962,0,0,0.00162500027,-0.064706333,0.00975000113,-0.389024734,0.00975000113,0,-0,-0.388238013,-0.000786727236,-0,1487,1803,1469,1381,6,-6,21.6700001,0,0.0199999996,0.540000021,0,0,1,0.0127279218,-0.0224859957
8.047516,1783679974.348001,138,1.41752696,0.700271845,-3.0497334,0,0.0254117958,0.0278016664,1.03110802,26.6573524,2.54914379,2.75119328,151.88501,991.948425,0,0.181000009,1.54448652,1.41126359,2.38108015,3.67803288,-0.836593628,-2.26676941,0.995984197,1.00800002,-1.60000002,-1.60000002,-3,-0.200000003,0,0,3.0999999,3,2.5,0.0793862045,-0.136854202,-0.277899265,0.00578966504,0.0570336841,0,0,-0.00560317235,-0.0572981648,-0.033619035,-0.344515026,-0.033619035,0,-0,-0.343788981,-0.000726057217,0,1438,1803,1460,1392,6,-6,21.6700001,0,0.0199999996,0.540000021,0,0,1,-0.00360624865,-0.096944347
8.108283,1783679974.408767,139,-0.312811017,0.496194363,-3.03736687,0,-0.0138190426,0.0277964994,1.11123633,35.8641357,-2.11773729,0.289946079,151.935013,991.948425,0,0.298000008,1.43289948,-0.712255716,0.644212365,3.48171139,0.78868711,-4.19396687,0.995980263,1.00899994,-1.60000002,-1.60000002,-3,-0.200000003,0,0,3.0999999,3,2.5,-0.181813836,-0.0970218852,-0.137238145,0.00532490853,0.0381030962,0,0,-0.00550835859,-0.0382009931,-0.0330501497,-0.229882345,-0.0330501497,0,0,-0.229205966,-0.000676378491,0,1416,1803,1459,1393,6,-6,21.6700001,0,0.0199999996,0.540000021,0,0,1,-0.0358503088,-0.194949359
8.170808,1783679974.471293,140,-2.16555333,0.456934214,-3.12951994,0,0.0788284838,-0.0305940919,0.983452022,42.9023438,2.46926975,1.61651206,151.985001,991.948425,0,0.0700000003,-1.78183293,4.58053303,-1.20341802,3.42170262,-0.578414917,1.1588304,0.996643305,0.842000008,-1.60000002,-1.60000002,-3,-0.200000003,0,0,3.0999999,3,2.5,-0.0011087833,-0.00125749223,0.132660776,6.27769477e-05,0.017302338,0,0,-8.23010414e-05,-0.0173275881,-0.000493806263,-0.104613371,-0.000493806263,0,0,-0.103965528,-0.000647842244,0,1471,1803,1469,1381,6,-6,21.6700001,0,0.0199999996,0.540000021,0,0,1,-0.037971653,-0.228041947
8.202135,1783679974.502620,141,-4.02255535,0.463163137,-3.18977547,0,0.0518956929,-0.0172505677,0.961440861,43.5894737,2.99778771,0.987498999,152.035004,991.948425,0,0.49000001,-1.02791429,3.08915997,-3.07058072,3.4332056,2.04266644,-0.344045639,0.995976269,1.00999999,-1.60000002,-1.60000002,-3,-0.200000003,0,0,3.0999999,3,2.5,0.165776193,0.120654933,0.121355094,-0.000758151989,-0.000733988476,0,0,0.000925585919,0.000855849939,0.00555351563,0.00449656276,0.00555351563,0,0,0.0051350994,-0.000638536527,0,1449,1803,1467,1383,6,-6,21.6700001,0,0.0199999996,0.540000021,0,0,1,-0.0436991975,-0.268559158
8.264249,1783679974.564734,142,-5.61331463,0.387223482,-3.22244573,0,0.100378722,0.0602580979,0.959184051,48.4493752,-12.4563999,-6.88936949,152.085007,991.948425,0,0.0960000008,3.59472561,5.96259451,-4.68634319,3.34538198,8.2810688,2.61721253,0.99598819,1.00699997,-1.60000002,-1.60000002,-3,-0.200000003,0,0,3.0999999,3,2.5,0.033020813,-0.0402483344,-0.0832571536,0.00342618977,-0.0227434952,0,0,-0.00339293783,0.0227029659,-0.0203576274,0.13556996,-0.0203576274,0,-0,0.136217803,-0.000647840672,-0,1515,1803,1468,1382,6,-6,21.6700001,0,0.0199999996,0.540000021,0,0,1,-0.0625789464,-0.287014633
8.327240,1783679974.627725,143,-7.17376184,0.129903793,-3.26810074,0,0.161884412,-0.071610406,0.962066054,48.6080017,-18.295639,-1.96160555,152.13501,991.948425,0,0.484000027,-4.25690317,9.52567196,-6.2228899,3.06794333,1.96598673,6.45772839,0.995258629,1.19099998,-1.60000002,-1.60000002,-3,-0.200000003,0,0,3.0999999,3,2.5,0.0448978767,0.191727653,-0.236993447,0.00347676873,-0.032455571,0,0,-0.00342329545,0.0326839201,-0.0205397718,0.195427969,-0.0205397718,0,0,0.196103513,-0.000675543095,-0,1515,1803,1470,1379,6,-6,21.6700001,0,0.0199999996,0.540000021,0,0,1,-0.0574877784,-0.261134535
8.390877,1783679974.691362,144,-8.49673367,-0.161257267,-3.17427063,0,-0.0446866676,-0.0353864618,1.08766067,46.4380493,-5.83354998,6.91679764,152.185013,991.900818,0,0.269000024,-1.86343062,-2.35143828,-7.55943632,2.8282218,5.69600582,-5.17965984,0.995980263,1.00899994,-1.60000002,-1.60000002,-3,-0.200000003,0,0,3.0999999,3,2.5,-0.0885465816,0.156301394,-0.157889843,0.00405195542,-0.0236128923,0,0,-0.00414129905,0.0237706006,-0.0248477943,0.141920179,-0.0248477943,0,-0,0.142623603,-0.000703429396,-0,1452,1803,1460,1392,6,-6,21.6700001,0,0.0199999996,0.540000021,0,0,1,-0.0574877784,-0.261134535
8.453428,1783679974.753913,145,-9.56289673,-0.51136899,-2.92693591,0,-0.0907955468,-0.0343965515,1.06709552,46.4634399,-4.76992559,8.87788868,152.235001,991.900818,0,0.520000041,-1.84622192,-4.86087751,-8.63945866,2.49709988,6.79323673,-7.35797739,0.994589448,1.36000001,-1.60000002,-1.60000002,-3,-0.200000003,0,0,3.0999999,3,2.5,-0.230351597,0.163666829,-0.146022037,-0.00790759921,-0.0425425991,0,0,0.00750900386,0.0429211855,0.0450540222,0.256797224,0.0450540222,0,0,0.257527113,-0.000729892519,0,1455,1803,1450,1404,6,-6,21.6700001,0,0.0199999996,0.540000021,0,0,1,-0.0570635125,-0.183069944
8.515902,1783679974.816386,146,-10.3444433,-0.494410992,-2.59628415,0,0.118992157,-0.0945925862,0.912373066,43.023365,-7.46290302,7.74745703,152.285004,991.900818,0,0.788000047,-5.919137,7.39142609,-9.39823532,2.45440173,3.47909832,4.93702412,0.995980263,1.00899994,-1.60000002,-1.60000002,-3,-0.200000003,0,0,3.0999999,3,2.5,0.0919322222,0.189262316,0.0176992677,-0.0103557119,-0.0469295532,0,0,0.0104484716,0.047120519,0.0626908317,0.281951994,0.0626908317,0,-0,0.282723129,-0.000771125604,-0,1515,1803,1456,1397,6,-6,21.6700001,0,0.0199999996,0.540000021,0,0,1,-0.065548785,-0.225072086
8.547957,1783679974.848442,147,-10.8393097,-0.710180521,-2.36842203,0,-0.0424897298,-0.0436996967,1.01847124,39.6597481,-6.88898182,3.54006815,152.336014,991.900818,0,0.266000003,-2.45689154,-2.38675094,-9.90904236,2.27720714,7.45215082,-4.66395807,0.995984197,1.00800002,-1.60000002,-1.60000002,-3,-0.200000003,0,0,3.0999999,3,2.5,-0.114248879,0.134844914,-0.071001865,-0.0198100153,-0.0765085742,0,0,0.0196948517,0.0766444951,0.118169114,0.459033072,0.118169114,0,0,0.459866971,-0.000833886967,-0,1502,1803,1448,1407,6,-6,21.6700001,0,0.0199999996,0.540000021,0,0,1,-0.0717006102,-0.252437115
8.609543,1783679974.910028,148,-11.1808996,-0.877080679,-2.27872491,0,0.113489762,-0.0465373173,0.904628456,33.2730865,-6.45693684,-2.51078176,152.386002,991.900818,0,0.26700002,-2.94490337,7.1413126,-10.2532139,2.06901526,7.30831051,5.0722971,0.995551884,1.11699998,-1.60000002,-1.60000002,-3,-0.200000003,0,0,3.0999999,3,2.5,-0.01731354,0.211509854,-0.0306861997,-0.0303688329,-0.0885844082,0,0,0.030349493,0.0888206661,0.182096958,0.532007396,0.182096958,0,0,0.532923996,-0.000916617573,-0,1515,1803,1455,1398,6,-6,21.6700001,0,0.0199999996,0.540000021,0,0,1,-0.0460326523,-0.177978769
8.672166,1783679974.972651,149,-11.2072878,-1.00504792,-2.12121272,0,-0.0631818622,-0.0787328258,1.12114441,27.7853985,-4.15191746,7.29452324,152.436005,991.884949,0,0.443000019,-4.01702452,-3.21757269,-10.2722378,1.98452139,6.25521326,-5.20209408,0.995980263,1.00899994,-1.60000002,-1.60000002,-3,-0.200000003,0,0,3.0999999,3,2.5,-0.200488329,0.180802897,-0.196356773,-0.0381693207,-0.0978716612,0,0,0.0381693207,0.0978716612,0.229015917,0.586224318,0.229015917,0,0,0.587229967,-0.00100562372,-0,1488,1803,1447,1407,6,-6,21.6700001,0,0.0199999996,0.540000021,0,0,1,-0.0407293588,-0.174372539
8.750266,1783679975.050751,150,-11.0824032,-1.02746284,-1.97256136,0,0.0964096785,-0.110259339,1.00164413,21.6768169,-1.68551588,9.0568943,152.486008,991.884949,0,0.0920000076,-6.28173447,5.46505499,-10.1428404,1.92226517,3.86110592,3.54278994,0.994656682,1.34299994,-1.60000002,-1.60000002,-3,-0.200000003,0,0,3.0999999,3,2.5,-0.0920112133,0.260406494,-0.187492505,-0.0470593609,-0.102777012,0,0,0.0469357893,0.103126734,0.281614721,0.617654204,0.281614721,0,0,0.618760407,-0.00110622426,-0,1514,1803,1449,1405,6,-6,21.6700001,0,0.0199999996,0.540000021,0,0,1,-0.0343653932,-0.131946117
8.782379,1783679975.082863,151,-10.6750298,-0.994583845,-1.80770707,0,0.005394537,-0.0725725889,1.04057014,15.4969501,1.47863841,7.7432313,152.536011,991.884949,0,0.715000033,-3.98952556,0.29631111,-9.73792076,1.98083913,5.74839497,-1.68452799,0.995984197,1.00800002,-1.60000002,-1.60000002,-3,-0.200000003,0,0,3.0999999,3,2.5,-0.09072005,0.166630059,-0.116935357,-0.0511758849,-0.106892042,0,0,0.0511758849,0.106892042,0.307055295,0.64014107,0.307055295,0,0,0.641352236,-0.00121114601,-0,1441,1803,1443,1412,6,-6,21.6700001,0,0.0199999996,0.540000021,0,0,1,-0.0229102559,-0.0933380872
8.844588,1783679975.145073,152,-10.0316753,-0.861062527,-1.68975902,0,-0.0174398981,-0.0748918876,1.02303994,9.10081863,4.91773891,2.9392066,152.587006,991.884949,0,0.168000013,-4.18688297,-0.974028289,-9.08377171,2.11534905,4.89688873,-3.0893774,0.997490287,0.629000008,-1.60000002,-1.60000002,-3,-0.200000003,0,0,3.0999999,3,2.5,-0.0735682547,0.136458442,0.00321664196,-0.0520933494,-0.104717776,0,0,0.052002117,0.104980469,0.312012702,0.628565729,0.312012702,0,0,0.629882812,-0.00131706486,-0,1457,1821,1447,1407,6,-6,21.6700001,0,0.0199999996,0.540000021,0,0,1,-0.0188797507,-0.0765796676
8.905445,1783679975.205929,153,-9.31563091,-0.740133524,-1.58342576,0,0.175852418,-0.0413453057,0.836384773,4.06563282,-5.89881039,-1.9178493,152.637009,991.884949,0,0.612000048,-2.830019,11.8595915,-8.37771606,2.18969226,5.54769707,9.66989899,0.995984197,1.00800002,-1.60000002,-1.60000002,-3,-0.200000003,0,0,3.0999999,3,2.5,-0.0598199293,0.0910067186,0.0449663736,-0.0508426167,-0.0992737859,0,0,0.0507823192,0.0993655175,0.304693907,0.594773531,0.304693907,0,0,0.596193075,-0.00141954015,-0,1515,1866,1448,1406,6,-6,21.6700001,0,0.0199999996,0.540000021,0,0,1,-0.00933380891,-0.0352139175
8.968077,1783679975.268562,154,-8.47731018,-0.623158693,-1.51208305,0,0.0569589473,-0.00619484857,1.07378161,0.697913587,-6.39819336,0.954219937,152.687012,991.91272,0,0.185000002,-0.330546498,3.03636909,-7.54612064,2.34271121,7.21557426,0.693657875,0.995980263,1.00899994,-1.60000002,-1.60000002,-3,-0.200000003,0,0,3.0999999,3,2.5,-0.180848792,0.0424605571,0.00833106786,-0.0496451147,-0.0930531099,0,0,0.0494626388,0.0930959508,0.296775818,0.557060003,0.296775818,0,0,0.55857569,-0.00151567196,-0,1474,1897,1445,1410,6,-6,21.6700001,0,0.0199999996,0.540000021,0,0,1,-0.00742462184,-0.0129400538
9.029669,1783679975.330153,155,-7.73182917,-0.535532951,-1.51337266,0,0.0182260647,-0.0661225617,1.06024933,-4.12549877,4.09954309,2.54932356,152.737015,991.91272,0,0.759000063,-3.56863546,0.982928693,-6.78513908,2.43923926,3.21650362,-1.45631051,0.995801747,1.05400002,-1.60000002,-1.60000002,-3,-0.200000003,0,0,3.0999999,3,2.5,-0.076820232,0.176946819,0.107199728,-0.0471371114,-0.0814074725,0,0,0.0470561422,0.0815939754,0.282336861,0.487959594,0.282336861,0,0,0.489563853,-0.00160426076,-0,1444,1931,1442,1413,6,-6,21.6700001,0,0.0199999996,0.540000021,0,0,1,-0.000636396464,0.0120915268
9.092443,1783679975.392927,156,-6.88013935,-0.505041599,-1.4228611,0,0.0697755069,-0.0684089139,0.941414237,-8.44739914,-2.7639153,1.31402206,152.787003,991.91272,0,0.37500003,-4.15615702,4.22777653,-5.92707157,2.45648956,1.77091455,1.77128696,0.995976269,1.00999999,-1.60000002,-1.60000002,-3,-0.200000003,0,0,3.0999999,3,2.5,-0.107988797,0.0695550442,0.100119412,-0.0441139713,-0.0669011548,0,0,0.0440049022,0.0669714063,0.264029413,0.400150329,0.264029413,0,0,0.401828438,-0.00167812081,-0,1476,1951,1445,1409,6,-6,21.6700001,0,0.0199999996,0.540000021,0,0,1,0.00275771879,0.0358503163
9.124074,1783679975.424559,157,-5.90820122,-0.546643972,-1.35890365,0,-0.00877529569,-0.0495815948,1.0528506,-9.65095711,-0.606632471,1.03830767,152.837006,991.91272,0,0.406000018,-2.69622183,-0.477008998,-4.95542049,2.43155789,2.25919867,-2.90856695,0.996718824,0.822999954,-1.60000002,-1.60000002,-3,-0.200000003,0,0,3.0999999,3,2.5,-0.177295208,0.0111449063,0.0847076476,-0.0411604941,-0.0528960563,0,0,0.0408344902,0.052925583,0.245006949,0.315814853,0.245006949,0,0,0.31755349,-0.00173863571,0,1404,1951,1442,1413,6,-6,21.6700001,0,0.0199999996,0.540000021,0,0,1,0.0089095477,0.0708521008
9.186717,1783679975.487202,158,-5.08684731,-0.483734608,-1.32880044,0,-0.0710386038,-0.0905870348,1.04137588,-13.0888195,7.41151571,2.49033737,152.887009,991.91272,0,0.535000026,-4.97152138,-3.88781238,-4.12293959,2.51293802,-0.848581791,-6.40075016,0.995623291,1.09899998,-1.60000002,-1.60000002,-3,-0.200000003,0,0,3.0999999,3,2.5,-0.131741434,0.0138219874,0.200271338,-0.039722167,-0.0392570496,0,0,0.0395773835,0.0392722413,0.237464309,0.233848378,0.237464309,0,0,0.235633448,-0.00178507541,0,1383,1951,1443,1412,6,-6,21.6700001,0,0.0199999996,0.540000021,0,0,1,0.01272792,0.0857013464
9.247418,1783679975.547903,159,-4.2741375,-0.349173546,-1.34087658,0,0.0476706699,-0.0668682754,0.885977089,-14.8184185,9.49194145,3.00852323,152.937012,992.083252,0,0.217000008,-4.31616116,3.07115531,-3.30991054,2.6176672,-1.00625062,0.453488111,0.995992124,1.00599992,-1.60000002,-1.60000002,-3,-0.200000003,0,0,3.0999999,3,2.5,-0.0182762388,0.0104718711,0.270204604,-0.0356609523,-0.0183010381,0,0,0.035642568,0.0183115732,0.213855416,0.108055048,0.213855416,0,0,0.109869435,-0.00181438588,0,1411,1951,1446,1409,6,-6,21.6700001,0,0.0199999996,0.540000021,0,0,1,0.0241830572,0.120915256
9.310627,1783679975.611111,160,-3.6962359,-0.0997297764,-1.30951095,0,0.141683564,-0.0192269757,0.915310383,-22.5743771,-4.04291344,-3.90367055,152.987015,992.083252,0,0.488000035,-1.20337605,8.79723549,-2.74437356,2.83670235,1.54099751,5.96053314,0.994593441,1.35899997,-1.60000002,-1.60000002,-3,-0.200000003,0,0,3.0999999,3,2.5,0.102471963,0.247189775,-0.272571594,-0.0298343133,0.00487452326,0,0,0.0299735721,-0.00453859242,0.179841429,-0.0290543158,0.179841429,0,-0,-0.0272315554,-0.00182275986,-0,1508,1951,1441,1414,6,-6,21.6700001,0,0.0199999996,0.540000021,0,0,1,0.0265165083,0.142764851
9.374152,1783679975.674637,161,-2.81100416,-0.00485277176,-1.13030314,0,0.0516313203,-0.0548698232,1.08662605,-28.3709621,-5.3757596,7.33600616,153.037003,992.083252,0,0.438000023,-2.89072895,2.71692133,-1.84662175,2.96479988,-1.0441072,-0.247878551,0.99598819,1.00699997,-1.60000002,-1.60000002,-3,-0.200000003,0,0,3.0999999,3,2.5,-0.0763347298,0.0455581807,-0.274031579,-0.0220862161,0.0278787352,0,0,0.0220093466,-0.0278328583,0.132056087,-0.168802917,0.132056087,0,0,-0.16699715,-0.00180576439,-0,1445,1951,1439,1416,6,-6,21.6700001,0,0.0199999996,0.540000021,0,0,1,0.0252437219,0.208525807
9.436834,1783679975.737319,162,-1.80440152,-0.0415978432,-0.943316162,0,-0.0152182728,-0.0668167546,1.11465502,-31.3934002,2.74660993,3.65740013,153.087006,992.083252,0,0.0950000063,-3.43042684,-0.780803561,-0.837856174,2.93616652,-2.59257078,-3.71696997,0.99755007,0.614000022,-1.60000002,-1.60000002,-3,-0.200000003,0,0,3.0999999,3,2.5,-0.152949274,0.0193830058,-0.309882462,-0.021912558,0.0359614491,0,0,0.0216504242,-0.0359148122,0.129902542,-0.217264414,0.129902542,0,0,-0.215488881,-0.00177553424,-0,1439,1951,1434,1421,6,-6,21.6700001,0,0.0199999996,0.540000021,0,0,1,0.0237587914,0.252861381
9.468673,1783679975.769157,163,-0.928085804,-0.137948751,-0.738540709,0,0.116898812,-0.0815779343,1.00628412,-36.394455,-1.95952368,2.392169,153.137009,992.083252,0,0.628000021,-4.63474703,6.60480499,0.0508873537,2.81552267,-4.68563461,3.78928232,0.995992124,1.00599992,-1.60000002,-1.60000002,-3,-0.200000003,0,0,3.0999999,3,2.5,-0.0571936853,0.119068615,-0.3833794,-0.0252320729,0.0481914878,0,0,0.0251745358,-0.0480717048,0.151047215,-0.290164381,0.151047215,0,0,-0.288430214,-0.00173415965,-0,1467,1951,1435,1421,6,-6,21.6700001,0,0.0199999996,0.540000021,0,0,1,0.0328804702,0.289135993
9.532129,1783679975.832613,164,-0.116822064,-0.0635969639,-0.365441978,0,-0.00544073246,-0.0910709426,1.07912886,-47.8255234,-6.13498735,8.48879433,153.187012,992,0,0.229000017,-4.82393312,-0.287847161,0.866244674,2.91794777,-5.69017792,-3.20579481,0.995980263,1.00899994,-1.60000002,-1.60000002,-3,-0.200000003,0,0,3.0999999,3,2.5,0.0493588969,0.383672327,-0.54247731,-0.0182289034,0.0714161843,0,0,0.0182787068,-0.0710290596,0.109672241,-0.427848339,0.109672241,0,-0,-0.426174343,-0.00167399039,-0,1469,1951,1421,1434,6,-6,21.6700001,0,0.0199999996,0.540000021,0,0,1,0.0337289944,0.259437472
9.593905,1783679975.894390,165,1.19183826,-0.322957993,-0.0168092102,0,-0.0542714521,-0.129058078,1.10801542,-55.359127,1.86710978,4.12963104,153.237015,992,0,0.771000028,-6.64369202,-2.78534961,2.18995905,2.66911888,-8.83365059,-5.45446873,0.995706499,1.07799995,-1.60000002,-1.60000002,-3,-0.200000003,0,0,3.0999999,3,2.5,-0.197673708,0.0717377961,-0.216164514,-0.0169517994,0.100541592,0,0,0.0167387072,-0.100464255,0.100432247,-0.604368329,0.100432247,0,0,-0.602785528,-0.00158281182,-0,1404,1951,1423,1432,6,-6,21.6700001,0,0.0199999996,0.540000021,0,0,1,0.01697056,0.273226082
9.655365,1783679975.955850,166,2.62347007,-0.365561485,0.0678548068,0,0.0244636461,-0.0959931538,1.04369318,-61.9551201,3.69278097,1.43806708,153.287003,992,0,0.421000034,-5.25496626,1.33709705,3.61838126,2.60806966,-8.87334728,-1.27097261,0.996087432,0.982000053,-1.60000002,-1.60000002,-3,-0.200000003,0,0,3.0999999,3,2.5,0.055171065,0.0529830307,-0.415929109,-0.0198843833,0.10235972,0,0,0.0199385621,-0.102307692,0.119631372,-0.615327656,0.119631372,0,-0,-0.613846183,-0.0014814618,-0,1457,1951,1426,1429,6,-6,21.6700001,0,0.0199999996,0.540000021,0,0,1,0.01697056,0.273226082
9.701265,1783679976.001750,167,4.15626526,-0.658282995,-0.123354286,0,0.0715504661,-0.0557239018,0.939549387,-66.1674728,1.89579725,-5.13466549,153.337006,992,0,0.0680000037,-3.3941896,4.34728861,5.14559984,2.30340052,-8.5397892,2.04388809,0.996587634,0.856000006,-1.60000002,-1.60000002,-3,-0.200000003,0,0,3.0999999,3,2.5,-0.310068369,-0.107220955,-0.367930025,-0.024275288,0.110387169,0,0,0.0236059483,-0.110598803,0.141635686,-0.664963901,0.141635686,0,0,-0.663592815,-0.00137106678,0,1482,1951,1438,1418,6,-6,21.6700001,0,0.0199999996,0.540000021,0,0,1,0.0199404284,0.243103296
9.763090,1783679976.063575,168,5.59816599,-0.641290188,-0.531968653,0,0.056372337,-0.0291956402,1.02939045,-66.2683182,-0.354975402,-12.410553,153.387009,992,0,0.475000024,-1.62459111,3.13329101,6.59596825,2.32366395,-8.22055912,0.809627056,0.995425045,1.14900005,-1.60000002,-1.60000002,-3,-0.200000003,0,0,3.0999999,3,2.5,-0.0931614041,-0.151779875,-0.468297422,-0.0289439671,0.120667949,0,0,0.0288369246,-0.120842345,0.173021555,-0.726309597,0.173021555,0,0,-0.725054085,-0.00125551759,0,1446,1951,1440,1416,6,-6,21.6700001,0,0.0199999996,0.540000021,0,0,1,0.036698848,0.253497779
9.824763,1783679976.125248,169,6.91822052,-0.380431175,-1.2027204,0,0.00122180581,-0.071673654,1.13433337,-65.1178513,2.15813303,-13.6891794,153.437012,992.012085,0,0.229000017,-3.61546803,0.0615912043,7.9246192,2.59838414,-11.5400867,-2.53679299,0.995996118,1.005,-1.60000002,-1.60000002,-3,-0.200000003,0,0,3.0999999,3,2.5,-0.115493074,-0.238819405,-0.539403975,-0.0291007981,0.111645386,0,0,0.0289847273,-0.111885399,0.173908368,-0.672451437,0.173908368,0,0,-0.671312392,-0.0011390365,0,1367,1951,1455,1398,6,-6,21.6700001,0,0.0199999996,0.540000021,0,0,1,0.036698848,0.253497779
9.886242,1783679976.186727,170,8.15365791,-0.145089388,-2.13036466,0,-0.0293861553,-0.012280155,1.05981982,-54.9818306,16.2453651,-11.6645441,153.487015,992.012085,0,0.489000022,-0.663857758,-1.58815527,9.16676807,2.84744477,-9.83062553,-4.43560028,0.994617164,1.35299993,-1.60000002,-1.60000002,-3,-0.200000003,0,0,3.0999999,3,2.5,-0.0630772412,-0.563487351,-0.326031357,-0.0305601303,0.0992435887,0,0,0.0304747876,-0.100005984,0.182848722,-0.601070225,0.182848722,0,0,-0.600035906,-0.00103431183,0,1367,1951,1468,1382,6,-6,21.6700001,0,0.0199999996,0.540000021,0,0,1,0.0644881427,0.225708485
9.947747,1783679976.248232,171,8.75392151,0.309633255,-3.31764746,0,0.0703120977,0.0320984051,0.898819864,-41.8550568,11.1424141,-31.9131641,153.537003,992.012085,0,0.422000021,2.04526186,4.47013712,9.74509716,3.2734766,-7.6998353,1.19666052,0.995976269,1.00999999,-1.60000002,-1.60000002,-3,-0.200000003,0,0,3.0999999,3,2.5,0.132782608,-0.538397729,-0.30340448,-0.02408747,0.0835294649,0,0,0.0242215805,-0.0840732455,0.145329475,-0.505387366,0.145329475,0,-0,-0.504439473,-0.000947880151,0,1401,1951,1485,1359,6,-6,21.6700001,0,0.0199999996,0.540000021,0,0,1,0.0941866189,0.196010008
10.009179,1783679976.309664,172,8.77850819,0.46598196,-4.57605362,0,-0.0245169364,0.0484834239,1.06632245,-25.6657467,13.4430599,-23.5666313,153.587006,992.012085,0,0.0850000009,2.60332489,-1.3157562,9.75537014,3.44573736,-7.15204525,-4.76149368,0.997669399,0.584000051,-1.60000002,-1.60000002,-3,-0.200000003,0,0,3.0999999,3,2.5,-0.120620832,-0.61999923,-0.161995769,-0.0147419022,0.0758709088,0,0,0.0145484181,-0.0771088898,0.0872905105,-0.463520885,0.0872905105,0,0,-0.462653339,-0.000867537223,0,1367,1951,1493,1345,6,-6,21.6700001,0,0.0199999996,0.540000021,0,0,1,0.0767918006,0.121763788
10.071907,1783679976.372391,173,8.13900375,0.720119476,-5.70701027,0,0.0424635261,0.0529975034,0.996611595,-8.61145687,11.6508484,-19.9451504,153.637009,992.012085,0,0.119000003,3.04399014,2.43633866,9.12361145,3.69382763,-6.07962132,-1.25748897,0.995984197,1.00800002,-1.60000002,-1.60000002,-3,-0.200000003,0,0,3.0999999,3,2.5,0.0224645156,-0.500361204,0.145180419,-0.00303509156,0.0687542707,0,0,0.00308040343,-0.0697525591,0.0184824206,-0.419309795,0.0184824206,0,-0,-0.418515354,-0.000794434804,0,1367,1933,1506,1324,6,-6,21.6700001,0,0.0199999996,0.540000021,0,0,1,0.067033723,0.0195161495
10.102890,1783679976.403375,174,6.93122959,1.01414514,-6.65027761,0,0.00158919836,0.00915662758,1.07095921,9.03963566,7.23802948,-13.9125576,153.687012,991.91272,0,0.205000013,0.489863038,0.0850181505,7.92126608,3.99851918,-7.43140316,-3.91350102,0.995984197,1.00800002,-1.60000002,-1.60000002,-3,-0.200000003,0,0,3.0999999,3,2.5,0.148021877,-0.48491329,0.221118897,0.0103971865,0.0522808991,0,0,-0.0102479802,-0.0527696908,-0.0614878833,-0.31735146,-0.0614878833,0,-0,-0.316618145,-0.000733326888,0,1367,1803,1509,1318,6,-6,21.6700001,0,0.0199999996,0.540000021,0,0,1,0.0483661033,-0.0462447815
10.198139,1783679976.498624,175,5.28250027,1.04496455,-7.41494226,0,0.101289012,0.133308232,0.975444496,28.349514,-4.85627985,-15.8954153,153.737015,991.91272,0,0.703000009,7.78206587,5.87406588,6.23592043,4.0054369,1.54614544,1.86862898,0.995619237,1.10000002,-1.60000002,-1.60000002,-3,-0.200000003,0,0,3.0999999,3,2.5,0.0948571786,-0.552085221,0.214626983,0.025258312,0.0262649618,0,0,-0.0251539685,-0.0268722549,-0.150923818,-0.161926344,-0.150923818,0,-0,-0.161233529,-0.000692810805,0,1460,1803,1518,1300,6,-6,21.6700001,0,0.0199999996,0.540000021,0,0,1,0.0114551261,-0.146371096
10.228689,1783679976.529174,176,2.96836805,0.916633368,-7.90595818,0,0.0958091691,0.037920922,0.921796083,46.5505638,-3.89827728,-6.15367031,153.787003,991.91272,0,0.378000021,2.35571027,5.92889357,3.93490982,3.87704372,-1.57919955,2.05184984,0.995980263,1.00899994,-1.60000002,-1.60000002,-3,-0.200000003,0,0,3.0999999,3,2.5,0.169947207,-0.330039442,0.296430767,0.0331087485,-0.00210322789,0,0,-0.0329372734,0.00177021814,-0.19762364,0.00994045008,-0.19762364,0,-0,0.0106213093,-0.000680859259,0,1486,1803,1520,1296,6,-6,21.6700001,0,0.0199999996,0.540000021,0,0,1,-0.0148492455,-0.204919532
10.308105,1783679976.608590,177,0.317239344,0.568124533,-7.9880991,0,0.0559940375,0.141080633,1.00496328,61.3119354,-5.84139681,0.451362729,153.837006,991.91272,0,0.0860000029,7.99118042,3.15817523,1.25559986,3.53801394,6.73558044,-0.379838705,0.996758521,0.813000023,-1.60000002,-1.60000002,-3,-0.200000003,0,0,3.0999999,3,2.5,0.122786567,-0.270537257,0.175593421,0.0360286273,-0.0270934142,0,0,-0.0357715227,0.0266119149,-0.214629143,0.158977583,-0.214629143,0,-0,0.159671485,-0.000693903072,0,1515,1803,1512,1313,6,-6,21.6700001,0,0.0199999996,0.540000021,0,0,1,-0.0309712812,-0.130673319
10.340110,1783679976.640595,178,-2.5559206,0.0864541531,-7.85667896,0,0.080994837,-0.0161919743,0.956348419,76.1701965,-3.66912222,10.7893763,153.887009,991.91272,0,0.530000031,-0.969984531,4.84023809,-1.59839499,3.04750061,0.628410459,1.79273748,0.995754123,1.06599998,-1.60000002,-1.60000002,-3,-0.200000003,0,0,3.0999999,3,2.5,0.180913359,-0.147549272,0.108765259,0.0342889205,-0.0442123003,0,0,-0.0340960659,0.0440550111,-0.204576403,0.263601929,-0.204576403,0,-0,0.264330059,-0.000728140352,0,1476,1803,1509,1318,6,-6,21.6700001,0,0.0199999996,0.540000021,0,0,1,-0.0767917931,-0.293166459
10.401874,1783679976.702359,179,-5.68833733,-0.427576303,-7.62753439,0,0.0346796103,0.123697363,1.07527304,88.5310669,-20.0610085,-1.61650848,153.937012,991.884949,0,0.178000003,6.56235075,1.83516347,-4.77371168,2.54393101,11.3360624,-0.708767533,0.995980263,1.00899994,-1.60000002,-1.60000002,-3,-0.200000003,0,0,3.0999999,3,2.5,0.0180558208,0.00852834433,-0.0927117765,0.0402198248,-0.0473015457,0,0,-0.0402016081,0.0473101512,-0.241209656,0.283086002,-0.241209656,0,-0,0.283860922,-0.000774932792,-0,1515,1803,1506,1324,6,-6,21.6700001,0,0.0199999996,0.540000021,0,0,1,-0.0767917931,-0.293166459
10.447900,1783679976.748385,180,-8.71606636,-1.01107657,-7.29903269,0,0.10598363,-0.0194590241,0.933392882,95.2380905,-22.1911907,5.41781998,153.987015,991.884949,0,0.529000044,-1.19430792,6.47660351,-7.78881168,1.93489611,6.59450388,4.54170752,0.995005071,1.255,-1.60000002,-1.60000002,-3,-0.200000003,0,0,3.0999999,3,2.5,-0.0647764951,0.0742087215,-0.158818603,0.041850891,-0.0442053303,0,0,-0.0419321842,0.0442984626,-0.251593113,0.264969826,-0.251593113,0,0,0.265790761,-0.000820949674,-0,1515,1803,1505,1326,6,-6,21.6700001,0,0.0199999996,0.540000021,0,0,1,-0.0767917931,-0.293166459
10.543108,1783679976.843593,181,-11.8221416,-1.38566601,-6.77163076,0,0.0375690535,0.0593349338,1.08854961,96.9509048,-9.09376526,17.7264271,154.037003,991.884949,0,0.442000031,3.12000537,1.9737339,-10.9184351,1.58141363,14.0384407,0.392320275,0.995976269,1.00999999,-1.60000002,-1.60000002,-3,-0.200000003,0,0,3.0999999,3,2.5,0.168711632,0.378029197,-0.314517111,0.0419357494,-0.0352529511,0,0,-0.0417653508,0.0356347598,-0.250592113,0.212946668,-0.250592113,0,-0,0.213808566,-0.00086189236,-0,1515,1803,1493,1345,6,-6,21.6700001,0,0.0199999996,0.540000021,0,0,1,0.136400893,0.0994899124
10.574934,1783679976.875419,182,-14.5898638,-1.95496202,-5.8967185,0,0.0386130996,0.0311260968,1.07862294,94.0110779,-18.2320671,18.3041191,154.087006,991.884949,0,0.088000007,1.65294027,2.04937577,-13.6676931,1.01111937,15.3206329,1.03825641,0.997518182,0.622000039,-1.60000002,-1.60000002,-3,-0.200000003,0,0,3.0999999,3,2.5,-0.224498227,0.49376443,-0.446826845,0.0403461158,-0.0131879514,0,0,-0.0407977439,0.0142479995,-0.244786471,0.0846009105,-0.244786471,0,0,0.085487999,-0.000887088303,-0,1515,1803,1476,1371,6,-6,21.6700001,0,0.0199999996,0.540000021,0,0,1,0.267710626,0.0708521008
10.637687,1783679976.938172,183,-16.6727886,-2.11154866,-4.7441988,0,0.145077452,-0.132734925,0.926080346,87.2101212,-16.5197411,28.419857,154.137009,991.884949,0,0.538000047,-8.15664101,8.81480312,-15.742939,0.825151324,7.58629799,7.98965168,0.996000051,1.00399995,-1.60000002,-1.60000002,-3,-0.200000003,0,0,3.0999999,3,2.5,0.0383472778,0.471656084,-0.428908825,0.0358833037,0.00882795919,0,0,-0.0358448029,-0.00835441612,-0.215068817,-0.051016096,-0.215068817,0,0,-0.0501264967,-0.000889598916,-0,1515,1803,1467,1384,6,-6,21.6700001,0,0.0199999996,0.540000021,0,0,1,0.267710626,0.0708521008
10.698334,1783679976.998819,184,-18.3451595,-2.15145135,-3.30695367,0,-0.000477068126,-0.180927008,1.0729872,73.7580414,-1.97875118,43.6264267,154.187012,991.877014,0,0.13000001,-9.57117558,-0.0251200497,-17.4165344,0.820609927,7.84535885,-0.845729947,0.995976269,1.00999999,-1.60000002,-1.60000002,-3,-0.200000003,0,0,3.0999999,3,2.5,-0.00878871605,0.731684744,-0.514866233,0.0326968543,0.0408199653,0,0,-0.0327057317,-0.0400809646,-0.19623439,-0.2413515,-0.19623439,0,-0,-0.240485787,-0.00086571573,-0,1454,1803,1442,1413,6,-6,21.6700001,0,0.0199999996,0.540000021,0,0,1,0.267710626,0.0708521008
10.760390,1783679977.060874,185,-19.0451603,-2.08344626,-1.92076969,0,0.11962913,-0.172746688,0.931077898,60.5147667,-5.97554588,28.6422234,154.237015,991.877014,0,0.747000039,-10.5108042,7.1999588,-18.1155052,0.859750867,7.60470104,6.34020805,0.995984197,1.00800002,-1.60000002,-1.60000002,-3,-0.200000003,0,0,3.0999999,3,2.5,-0.100278266,0.552878261,-0.575047314,0.0218475536,0.00922708027,0,0,-0.0219486337,-0.0086697787,-0.131691799,-0.0528636165,-0.131691799,0,0,-0.0520186722,-0.000844945665,-0,1515,1803,1435,1421,6,-6,21.6700001,0,0.0199999996,0.540000021,0,0,1,-0.063639611,-0.222738653
10.792402,1783679977.092886,186,-19.0757675,-1.91423154,-0.744017899,0,0.0702176541,-0.0767103657,0.976117194,43.8654671,-7.19789505,10.9871044,154.287003,991.877014,0,0.316000015,-4.49348259,4.10191965,-18.1690788,1.04245627,13.6755962,3.0594635,0.996087432,0.982000053,-1.60000002,-1.60000002,-3,-0.200000003,0,0,3.0999999,3,2.5,-0.122469038,0.525347352,-0.52044183,0.00964379963,0.00912339147,0,0,-0.0097640641,-0.00860750023,-0.0585843846,-0.0524803326,-0.0585843846,0,0,-0.0516450033,-0.000835328363,-0,1500,1803,1420,1436,6,-6,21.6700001,0,0.0199999996,0.540000021,0,0,1,-0.0428506657,-0.171402693
10.855343,1783679977.155828,187,-18.4191113,-1.68807471,0.117983982,0,0.000573966652,-0.0843176842,1.05933154,26.3857918,-5.15383005,15.0614433,154.337006,991.877014,0,0.41200003,-4.55087376,0.0309461039,-17.5021324,1.28476739,12.9512587,-1.25382125,0.996663153,0.836999953,-1.60000002,-1.60000002,-3,-0.200000003,0,0,3.0999999,3,2.5,-0.174681306,0.464158177,-0.354083985,0.00401932048,0.0209324062,0,0,-0.00434356928,-0.0199799985,-0.0260614157,-0.120700389,-0.0260614157,0,0,-0.119879991,-0.000820402056,-0,1397,1803,1417,1439,6,-6,21.6700001,0,0.0199999996,0.540000021,0,0,1,-0.0284256972,-0.12643069
10.917549,1783679977.218034,188,-17.1895084,-1.49372149,0.510583341,0,-0.0552521944,-0.135275662,1.11477137,8.57253551,6.41681099,6.32737589,154.387009,991.877014,0,0.535000026,-6.91891909,-2.81683874,-16.2669296,1.49227548,9.34801102,-4.30911446,0.995976269,1.00999999,-1.60000002,-1.60000002,-3,-0.200000003,0,0,3.0999999,3,2.5,-0.140123352,0.453596413,-0.14883174,-0.00605032966,0.0166640859,0,0,0.00590880495,-0.0162059534,0.0354528278,-0.0980371088,0.0354528278,0,0,-0.0972357243,-0.00080138247,-0,1374,1803,1414,1442,6,-6,21.6700001,0,0.0199999996,0.540000021,0,0,1,-0.0188797545,-0.0774281919
10.979221,1783679977.279706,189,-15.4529314,-1.1941365,0.606991053,0,-0.0405276492,-0.150928095,0.99998033,-10.0458708,9.56370258,4.94322538,154.437012,991.91272,0,0.447000027,-8.58293056,-2.29487538,-14.5165653,1.79092944,5.93363476,-4.08580494,0.995984197,1.00800002,-1.60000002,-1.60000002,-3,-0.200000003,0,0,3.0999999,3,2.5,-0.0346552953,0.429054141,0.189337417,-0.0128782419,0.00954272598,0,0,0.012843309,-0.00911023933,0.0770598501,-0.0554508455,0.0770598501,0,-0,-0.0546614379,-0.000789409445,-0,1386,1951,1421,1435,6,-6,21.6700001,0,0.0199999996,0.540000021,0,0,1,0.000212132174,-0.00190918823
11.070746,1783679977.371231,190,-13.2690172,-0.975577474,0.558791757,0,0.106745452,-0.114260271,0.788964987,-28.5882282,-1.38317966,-6.18494797,154.487015,991.91272,0,0.540000021,-8.24045467,7.62660789,-12.3282537,1.96617496,4.08779907,5.66043282,0.995246708,1.19400001,-1.60000002,-1.60000002,-3,-0.200000003,0,0,3.0999999,3,2.5,-0.0824608952,0.372260362,0.32918784,-0.0174276922,0.0160396304,0,0,0.0173292346,-0.015595152,0.103975408,-0.0943477899,0.103975408,0,0,-0.0935709104,-0.000776875939,-0,1494,1951,1425,1431,6,-6,21.6700001,0,0.0199999996,0.540000021,0,0,1,-0.000212131068,0.0345775187
11.101808,1783679977.402292,191,-10.694315,-0.815196276,0.473768115,0,0.067734912,-0.0668834224,0.871428311,-47.1744652,-4.95612478,-7.71790695,154.537003,991.91272,0,0.322000027,-4.38893175,4.43160343,-9.75567341,2.14427638,5.36674166,2.28732705,0.995984197,1.00800002,-1.60000002,-1.60000002,-3,-0.200000003,0,0,3.0999999,3,2.5,-0.129625067,0.333076388,0.304069817,-0.0197196882,0.024783032,0,0,0.0195890255,-0.0244472902,0.117534153,-0.147440821,0.117534153,0,0,-0.146683738,-0.000757076719,-0,1483,1951,1423,1433,6,-6,21.6700001,0,0.0199999996,0.540000021,0,0,1,0.00657608733,0.107126683
11.177658,1783679977.478143,192,-7.73522139,-0.696659327,0.411048353,0,0.034934964,-0.102076478,0.96866405,-63.3158951,-0.780115247,0.641028166,154.587006,991.91272,0,0.413000017,-6.01554918,2.05411911,-6.77688122,2.27253032,0.761332035,-0.218411207,0.997565985,0.610000014,-1.60000002,-1.60000002,-3,-0.200000003,0,0,3.0999999,3,2.5,-0.125968575,0.22687602,0.362960756,-0.0232540723,0.0387086459,0,0,0.022999255,-0.0382313468,0.137995526,-0.230113208,0.137995526,0,0,-0.229388088,-0.000725123798,-0,1410,1951,1423,1432,6,-6,21.6700001,0,0.0199999996,0.540000021,0,0,1,0.0152735114,0.143825531
11.209259,1783679977.509743,193,-4.58350468,-0.604087114,0.317794949,0,-0.0162902139,-0.131204098,0.988982916,-75.6172638,3.21481204,-1.61989772,154.637009,991.91272,0,0.525000036,-7.55705547,-0.935477674,-3.60743427,2.37788987,-3.9496212,-3.31336761,0.995980263,1.00899994,-1.60000002,-1.60000002,-3,-0.200000003,0,0,3.0999999,3,2.5,-0.0657436997,0.0569468662,0.336202323,-0.0202393085,0.0516592711,0,0,0.0201729722,-0.0516018122,0.121037833,-0.310291737,0.121037833,0,0,-0.309610873,-0.000680865603,-0,1395,1951,1425,1430,6,-6,21.6700001,0,0.0199999996,0.540000021,0,0,1,0.0254558399,0.247345954
11.271564,1783679977.572048,194,-1.32949126,-0.553986788,0.147698641,0,-0.0221949443,-0.0528784394,1.06534028,-85.4291229,6.2094264,-4.85992765,154.687012,991.988098,0,0.104000002,-2.84155869,-1.1920414,-0.359329462,2.42921352,-2.48222923,-3.62125492,0.995984197,1.00800002,-1.60000002,-1.60000002,-3,-0.200000003,0,0,3.0999999,3,2.5,-0.0920203477,-0.058603134,0.0408791415,-0.017845422,0.0633435175,0,0,0.017752666,-0.0634025931,0.106515996,-0.381038606,0.106515996,0,0,-0.380415559,-0.000623052241,0,1386,1951,1425,1431,6,-6,21.6700001,0,0.0199999996,0.540000021,0,0,1,0.0178190917,0.276195884
11.335441,1783679977.635926,195,1.72751975,-0.523135185,-0.117058188,0,0.0211841017,-0.154253185,0.990041435,-90.4745483,9.18128681,-1.1955471,154.737015,991.988098,0,0.73300004,-8.85575581,1.2111733,2.73430228,2.45050502,-11.5900583,-1.23933172,0.995980263,1.00899994,-1.60000002,-1.60000002,-3,-0.200000003,0,0,3.0999999,3,2.5,-0.106892668,-0.168177694,-0.179870605,-0.0193452295,0.0770820156,0,0,0.0192373749,-0.07725171,0.115424246,-0.464063317,0.115424246,0,0,-0.463510275,-0.000553051592,0,1389,1951,1439,1417,6,-6,21.6700001,0,0.0199999996,0.540000021,0,0,1,0.0341532528,0.387989491
11.397982,1783679977.698466,196,4.607728,-0.344650745,-0.491204023,0,0.136240199,-0.0520683229,0.946511567,-93.6153793,8.82675552,-14.5945091,154.787003,991.988098,0,0.318000019,-3.14871073,8.17865753,5.60310173,2.6015892,-8.75181198,5.57706833,0.995980263,1.00899994,-1.60000002,-1.60000002,-3,-0.200000003,0,0,3.0999999,3,2.5,-0.143349588,-0.247513831,-0.594422579,-0.0261776689,0.0661751032,0,0,0.026033029,-0.0664248466,0.156198174,-0.399030417,0.156198174,0,0,-0.39854908,-0.000481350493,0,1431,1951,1440,1415,6,-6,21.6700001,0,0.0199999996,0.540000021,0,0,1,0.0341532528,0.387989491
11.461790,1783679977.762274,197,7.16711998,0.0498476028,-1.03399873,0,0.141856849,-0.0823611841,1.07416439,-93.5439606,3.76779175,-12.4864426,154.837006,991.988098,0,0.339000016,-4.38455534,7.50132465,8.17010403,3.00317478,-12.5546589,4.49814987,0.996591687,0.855000019,-1.60000002,-1.60000002,-3,-0.200000003,0,0,3.0999999,3,2.5,0.16253832,-0.329739064,-0.941750884,-0.017283462,0.0945885628,0,0,0.0175470039,-0.0952534154,0.105282024,-0.571918905,0.105282024,0,-0,-0.571520507,-0.000398388278,0,1367,1951,1455,1399,6,-6,21.6700001,0,0.0199999996,0.540000021,0,0,1,0.0377594903,0.226557016
11.523196,1783679977.823680,198,9.40364456,0.440139294,-2.17666459,0,-0.0502469763,0.0258849189,1.09411716,-87.49543,16.2611809,-25.5567093,154.887009,991.988098,0,0.519000053,1.35526621,-2.62870789,10.400342,3.43326187,-9.04507542,-6.06196976,0.995964289,1.01300001,-1.60000002,-1.60000002,-3,-0.200000003,0,0,3.0999999,3,2.5,-0.0253766887,-0.602363586,-0.875499725,-0.0101359282,0.0746836141,0,0,0.0101102218,-0.0752938092,0.0606613308,-0.452075243,0.0606613308,0,-0,-0.451762855,-0.000312381453,0,1367,1951,1468,1382,6,-6,21.6700001,0,0.0199999996,0.540000021,0,0,1,0.0377594903,0.226557016
11.555146,1783679977.855631,199,11.1290874,0.872260571,-3.93494201,0,0.242377192,0.0236247107,1.00018322,-70.5047989,3.65581894,-46.1962509,154.937012,991.996033,0,0.13000001,1.35309672,13.6183891,12.1325264,3.80153537,-10.7794294,9.81685352,0.99598819,1.00699997,-1.60000002,-1.60000002,-3,-0.200000003,0,0,3.0999999,3,2.5,0.396489501,-0.766777039,-1.17524123,-0.00888978411,0.0348339975,0,0,0.00928904861,-0.0356061421,0.0557342917,-0.213893831,0.0557342917,0,-0,-0.213636845,-0.000256984669,0,1424,1951,1503,1330,6,-6,21.6700001,0,0.0199999996,0.540000021,0,0,1,0.0377594903,0.226557016
11.617198,1783679977.917683,200,11.6386623,1.25854993,-5.41528845,0,0.0720082,0.00795258582,1.10061038,-60.9035988,-3.17634678,-17.1617908,154.987015,991.996033,0,0.204000011,0.413989991,3.74318409,12.6369705,4.2287221,-12.2229805,-0.485538006,0.996881723,0.782000005,-1.60000002,-1.60000002,-3,-0.200000003,0,0,3.0999999,3,2.5,0.221269697,-0.442769229,-1.16321111,0.0138397319,0.027841052,0,0,-0.0133857578,-0.028715346,-0.0803145468,-0.172516167,-0.0803145468,0,-0,-0.172292084,-0.00022408973,0,1372,1951,1503,1330,6,-6,21.6700001,0,0.0199999996,0.540000021,0,0,1,0.058548443,0.231648177
11.678522,1783679977.979006,201,11.8474083,1.05512309,-6.13615894,0,0.153225958,0.12826778,0.952069998,-41.2544518,-3.18233132,-17.6548252,155.037003,991.996033,0,0.318000019,7.67298174,9.06227493,12.8282843,4.00348663,-5.15530252,5.0587883,0.99598819,1.00699997,-1.60000002,-1.60000002,-3,-0.200000003,0,0,3.0999999,3,2.5,-0.0373834968,-0.709855855,-0.6566993,0.017389372,0.0137736565,0,0,-0.0174270179,-0.014488481,-0.104562104,-0.0871380642,-0.104562104,0,0,-0.0869308859,-0.00020717908,0,1488,1951,1505,1325,6,-6,21.6700001,0,0.0199999996,0.540000021,0,0,1,0.126642823,-0.0608818866
11.740357,1783679978.040842,202,11.155839,1.11162829,-6.44518948,0,-0.00263881683,0.0251075178,1.05961561,-22.9688053,3.08789659,1.97825062,155.087006,991.996033,0,0.227000013,1.35736549,-0.142646387,12.1424551,4.09065771,-10.7850895,-4.23330402,0.99755007,0.614000022,-1.60000002,-1.60000002,-3,-0.200000003,0,0,3.0999999,3,2.5,0.374928266,-0.439926445,-0.478142709,0.0269686207,-0.00380103895,0,0,-0.0261382237,0.00293887779,-0.156829342,0.0174336527,-0.156829342,0,-0,0.0176332667,-0.00019961354,0,1509,1951,1501,1332,6,-6,21.6700001,0,0.0199999996,0.540000021,0,0,1,0.0322440714,0.22570847
