pc_elapsed_s,pc_unix_s,frame_index,roll_deg,pitch_deg,yaw_deg,altitude_m,accel_x_g,accel_y_g,accel_z_g,gyro_x_dps,gyro_y_dps,gyro_z_dps,fc_time_s,imu_irq_hz,imu_poll_hz,imu_age_ms,roll_acc_deg,pitch_acc_deg,roll_gyro_deg,pitch_gyro_deg,roll_residual_deg,pitch_residual_deg,attitude_cf_alpha,attitude_dt_ms,coax_roll_rate_kd,coax_pitch_rate_kd,coax_yaw_angle_kp,coax_yaw_rate_kd,coax_vel_x_kd,coax_vel_y_kd,coax_vel_z_kd,coax_accel_xy_limit_m_s2,coax_accel_z_limit_m_s2,nav_acc_x_m_s2,nav_acc_y_m_s2,nav_acc_z_m_s2,vel_est_x_m_s,vel_est_y_m_s,vel_ref_x_m_s,vel_ref_y_m_s,vel_err_x_m_s,vel_err_y_m_s,vel_pid_out_x_m_s2,vel_pid_out_y_m_s2,vel_pid_p_x_m_s2,vel_pid_i_x_m_s2,vel_pid_d_x_m_s2,vel_pid_p_y_m_s2,vel_pid_i_y_m_s2,vel_pid_d_y_m_s2,servo_alpha_us,servo_beta_us,motor_upper_us,motor_lower_us,vel_loop_x_kp,vel_loop_y_kp,vel_loop_output_limit_m_s2,vel_loop_x_ki,vel_loop_y_ki,vel_loop_i_limit_m_s2,vel_loop_x_kd,vel_loop_y_kd,vel_loop_enable,flow_raw_vx_m_s,flow_raw_vy_m_s
0.168148,1783675214.110215,1,-2.82763219,-3.12092066,-11.7066402,0,0.0520982333,0.00243943324,0.994430304,0.101885468,0.175347343,0.0447043553,101.538002,992.292786,0,0.811000049,0.140551776,2.99897695,0.125037178,3.02840042,0.0155145973,-0.0294234753,0.995984197,1.00800002,-2.41000009,-2.5999999,-3,-0.200000003,0,0,3.0999999,3,2.5,8.66711198e-05,0.000120906836,5.51033045e-05,8.73644908e-08,1.21874095e-07,0,0,0.0868671387,-0.029978944,1.11858153,0.729578257,1.02937567,0.0892058238,0,0.322273642,0.407304645,-0,1515,1951,1549,1216,11.8500004,10.75,21.6700001,0.319999993,0.469999999,0.540000021,0,0,1,0,0
0.246348,1783675214.188415,2,-2.8275497,-3.12224579,-11.7031631,0,0.0518880822,0.00283412682,0.994268715,0.0904782265,0.0934934691,0.0253704004,101.588005,992.186035,0,0.377000004,0.163319096,2.98738313,0.125024214,3.02712083,0.0382948816,-0.0397377014,0.995881081,1.03399992,-2.41000009,-2.5999999,-3,-0.200000003,0,0,3.0999999,3,2.5,7.06171995e-05,-2.42539882e-05,7.82775896e-05,7.30181782e-08,-2.50786218e-08,0,0,0.0868671387,-0.029978944,1.11858153,0.729578257,1.02937567,0.0892058238,0,0.322273642,0.407304645,-0,1515,1951,1549,1216,11.8500004,10.75,21.6700001,0.319999993,0.469999999,0.540000021,0,0,1,0,0
0.277284,1783675214.219351,3,-2.83147907,-3.11983871,-11.6982307,0,0.0518042445,0.00296059693,0.994603276,0.0834952667,0.2006547,0.090880692,101.638008,992.186035,0,0.0870000049,0.170549616,2.98156238,0.121044792,3.02956557,0.049504824,-0.0480031967,0.995805621,1.05299997,-2.41000009,-2.5999999,-3,-0.200000003,0,0,3.0999999,3,2.5,0,0,0,0,0,0,0,0.0868671387,-0.029978944,1.11858153,0.729578257,1.02937567,0.0892058238,0,0.322273642,0.407304645,-0,1515,1951,1549,1216,11.8500004,10.75,21.6700001,0.319999993,0.469999999,0.540000021,0,0,1,0,0
0.340734,1783675214.282800,4,-2.83070159,-3.12599277,-11.6942787,0,0.0508707911,0.00217347965,0.994522333,0.108507141,0.0934733599,0.0751589313,101.688004,992.186035,0,0.644000053,0.125216916,2.92817616,0.1220171,3.02359271,0.00319981575,-0.0954165459,0.99598819,1.00699997,-2.41000009,-2.5999999,-3,-0.200000003,0,0,3.0999999,3,2.5,2.05582382e-05,-9.70957481e-05,6.82067912e-05,2.07021458e-08,-9.77754198e-08,0,0,0.0868671387,-0.029978944,1.11858153,0.729578257,1.02937567,0.0892058238,0,0.322273642,0.407304645,-0,1515,1951,1549,1216,11.8500004,10.75,21.6700001,0.319999993,0.469999999,0.540000021,0,0,1,0,0
0.416105,1783675214.358172,5,-2.82822919,-3.13244915,-11.6900673,0,0.0510211773,0.00356093654,0.993916094,0.127799243,0.149077043,0.0862746835,101.738007,992.186035,0,0.220000014,0.205274627,2.93859386,0.124176711,3.01706886,0.0810979158,-0.0784749985,0.995984197,1.00800002,-2.41000009,-2.5999999,-3,-0.200000003,0,0,3.0999999,3,2.5,7.54559078e-05,5.56571795e-05,0.000147628787,7.60595569e-08,5.61024365e-08,0,0,0.0868671387,-0.029978944,1.11858153,0.729578257,1.02937567,0.0892058238,0,0.322273642,0.407304645,-0,1515,1951,1549,1216,11.8500004,10.75,21.6700001,0.319999993,0.469999999,0.540000021,0,0,1,0,0
0.448152,1783675214.390219,6,-2.82432556,-3.151263,-11.6857204,0,0.0504198447,0.0033286633,0.994295359,0.137040272,0.15953128,0.0608218163,101.788002,992.186035,0,0.855000019,0.19181186,2.90291595,0.12815091,2.99832225,0.0636609495,-0.0954062939,0.995992124,1.00599992,-2.41000009,-2.5999999,-3,-0.200000003,0,0,3.0999999,3,2.5,5.48493881e-05,-9.96038398e-06,2.79235846e-05,5.51784822e-08,-1.00201465e-08,0,0,0.0868671387,-0.029978944,1.11858153,0.729578257,1.02937567,0.0892058238,0,0.322273642,0.407304645,-0,1515,1951,1549,1216,11.8500004,10.75,21.6700001,0.319999993,0.469999999,0.540000021,0,0,1,0,0
0.511344,1783675214.453410,7,-2.82310152,-3.15084481,-11.6809368,0,0.050881464,0.00235762773,0.994694769,0.122197509,0.105288237,0.0913282782,101.838005,992.142578,0,0.437000006,0.135802329,2.92828131,0.129605293,2.99864054,0.00619703531,-0.07035923,0.995984197,1.00800002,-2.41000009,-2.5999999,-3,-0.200000003,0,0,3.0999999,3,2.5,-0.000101433994,-2.28983554e-05,8.0165868e-05,-1.02245465e-07,-2.3081542e-08,0,0,0.0868671387,-0.029978944,1.11858153,0.729578257,1.02937567,0.0892058238,0,0.322273642,0.407304645,-0,1515,1951,1549,1216,11.8500004,10.75,21.6700001,0.319999993,0.469999999,0.540000021,0,0,1,0,0
0.572750,1783675214.514817,8,-2.82526851,-3.15162444,-11.6767178,0,0.0513948761,0.00310713146,0.994006515,0.121418998,0.169139966,0.115210861,101.888008,992.142578,0,0.0920000076,0.179098353,2.95981503,0.127246007,2.99773717,0.0518523455,-0.0379221439,0.995813549,1.051,-2.41000009,-2.5999999,-3,-0.200000003,0,0,3.0999999,3,2.5,0,0,0,0,0,0,0,0.0868671387,-0.029978944,1.11858153,0.729578257,1.02937567,0.0892058238,0,0.322273642,0.407304645,-0,1515,1951,1549,1216,11.8500004,10.75,21.6700001,0.319999993,0.469999999,0.540000021,0,0,1,0,0
0.635497,1783675214.577564,9,-2.82348514,-3.15002751,-11.6730213,0,0.0519674011,0.00330189569,0.994367599,0.0630778223,0.123384349,0.0729505643,101.938004,992.142578,0,0.661000013,0.190255597,2.99164009,0.12900047,2.99920559,0.0612551272,-0.00756549835,0.995984197,1.00800002,-2.41000009,-2.5999999,-3,-0.200000003,0,0,3.0999999,3,2.5,-3.31521042e-05,-5.34519568e-05,6.74629264e-05,-3.34173222e-08,-5.3879571e-08,0,0,0.0868671387,-0.029978944,1.11858153,0.729578257,1.02937567,0.0892058238,0,0.322273642,0.407304645,-0,1515,1951,1549,1216,11.8500004,10.75,21.6700001,0.319999993,0.469999999,0.540000021,0,0,1,0,0
0.713773,1783675214.655840,10,-2.82250905,-3.14357495,-11.6689091,0,0.0520386957,0.00285893306,0.99413085,0.103870302,0.11874406,0.111993596,101.988007,992.142578,0,0.251000017,0.164771423,2.99645305,0.130083233,3.00566483,0.0346881896,-0.00921177864,0.995984197,1.00800002,-2.41000009,-2.5999999,-3,-0.200000003,0,0,3.0999999,3,2.5,1.56784063e-05,-6.2046427e-05,0.000119991309,1.58038329e-08,-6.25427958e-08,0,0,0.0868671387,-0.029978944,1.11858153,0.729578257,1.02937567,0.0892058238,0,0.322273642,0.407304645,-0,1515,1951,1549,1216,11.8500004,10.75,21.6700001,0.319999993,0.469999999,0.540000021,0,0,1,0,0
0.744312,1783675214.686379,11,-2.82169032,-3.14215541,-11.6653194,0,0.0514982343,0.00228527328,0.995045781,0.0992987603,0.122578725,0.0894960165,102.038002,992.142578,0,0.87500006,0.131588206,2.96267128,0.131038979,3.00722623,0.000549226999,-0.0445549488,0.995984197,1.00800002,-2.41000009,-2.5999999,-3,-0.200000003,0,0,3.0999999,3,2.5,0,0,0,0,0,0,0,0.0868671387,-0.029978944,1.11858153,0.729578257,1.02937567,0.0892058238,0,0.322273642,0.407304645,-0,1515,1951,1549,1216,11.8500004,10.75,21.6700001,0.319999993,0.469999999,0.540000021,0,0,1,0,0
0.821877,1783675214.763944,12,-2.82142282,-3.14281845,-11.6604137,0,0.0515650027,0.00253002369,0.994743764,0.121447384,0.219786838,0.133818075,102.088005,992.09906,0,0.470000029,0.145725325,2.96740294,0.131250694,3.00654173,0.0144746304,-0.0391387939,0.995984197,1.00800002,-2.41000009,-2.5999999,-3,-0.200000003,0,0,3.0999999,3,2.5,9.56904914e-05,-0.000124690428,-0.000128116619,9.6456013e-08,-1.25687947e-07,0,0,0.0868671387,-0.029978944,1.11858153,0.729578257,1.02937567,0.0892058238,0,0.322273642,0.407304645,-0,1515,1951,1549,1216,11.8500004,10.75,21.6700001,0.319999993,0.469999999,0.540000021,0,0,1,0,0
0.853525,1783675214.795591,13,-2.82075047,-3.14341545,-11.6558571,0,0.0513479784,0.00351609732,0.994930506,0.105505407,0.201555848,0.0915131494,102.138008,992.09906,0,0.0990000069,0.202483192,2.9543736,0.13169688,3.00599456,0.0707863122,-0.0516209602,0.995984197,1.00800002,-2.41000009,-2.5999999,-3,-0.200000003,0,0,3.0999999,3,2.5,-0.000184693345,-0.000191237486,-1.16157535e-05,-1.86170894e-07,-1.92767388e-07,0,0,0.0868671387,-0.029978944,1.11858153,0.729578257,1.02937567,0.0892058238,0,0.322273642,0.407304645,-0,1515,1951,1549,1216,11.8500004,10.75,21.6700001,0.319999993,0.469999999,0.540000021,0,0,1,0,0
0.915258,1783675214.857325,14,-2.82288098,-3.14142609,-11.6511612,0,0.0529080816,0.00195371336,0.99470377,0.118969522,0.175050572,0.0897858143,102.188004,992.09906,0,0.716000021,0.112535402,3.04467535,0.129920423,3.0076282,-0.0173850209,0.0370471478,0.99598819,1.00699997,-2.41000009,-2.5999999,-3,-0.200000003,0,0,3.0999999,3,2.5,-0.000183073294,-8.07065517e-05,-3.62205537e-05,-1.84354803e-07,-8.12714944e-08,0,0,0.0868671387,-0.029978944,1.11858153,0.729578257,1.02937567,0.0892058238,0,0.322273642,0.407304645,-0,1515,1951,1549,1216,11.8500004,10.75,21.6700001,0.319999993,0.469999999,0.540000021,0,0,1,0,0
0.978736,1783675214.920803,15,-2.82586622,-3.13987041,-11.6473579,0,0.052107729,0.00232323958,0.995180368,0.0800602436,0.207591787,0.071228005,102.238007,992.09906,0,0.299000025,0.133756235,2.99726677,0.126837492,3.00938129,0.00691874325,-0.0121145248,0.995984197,1.00800002,-2.41000009,-2.5999999,-3,-0.200000003,0,0,3.0999999,3,2.5,0.000176414265,0.000108253174,-1.55639646e-05,1.77825584e-07,1.09119199e-07,0,0,0.0868671387,-0.029978944,1.11858153,0.729578257,1.02937567,0.0892058238,0,0.322273642,0.407304645,-0,1515,1951,1549,1216,11.8500004,10.75,21.6700001,0.319999993,0.469999999,0.540000021,0,0,1,0,0
1.040888,1783675214.982955,16,-2.82823944,-3.1413331,-11.6433525,0,0.0515918434,0.0028228187,0.994314671,0.132881373,0.156836987,0.0909296945,102.288002,992.09906,0,0.0930000022,0.162659943,2.97022128,0.124341421,3.00801849,0.0383185223,-0.0377972126,0.99606353,0.987999976,-2.41000009,-2.5999999,-3,-0.200000003,0,0,3.0999999,3,2.5,0,0,0,0,0,0,0,0.0868671387,-0.029978944,1.11858153,0.729578257,1.02937567,0.0892058238,0,0.322273642,0.407304645,-0,1515,1951,1549,1216,11.8500004,10.75,21.6700001,0.319999993,0.469999999,0.540000021,0,0,1,0,0
1.103351,1783675215.045418,17,-2.82864952,-3.14322019,-11.6392326,0,0.0514197908,0.0027590408,0.994873703,0.0928072184,0.126119718,0.0967555642,102.338005,992.241394,0,0.537,0.158895537,2.95867372,0.123941973,3.00617313,0.0349535644,-0.0474994183,0.99598819,1.00699997,-2.41000009,-2.5999999,-3,-0.200000003,0,0,3.0999999,3,2.5,6.69550936e-05,-5.51160429e-06,5.08117701e-05,6.74237768e-08,-5.55018564e-09,0,0,0.0868671387,-0.029978944,1.11858153,0.729578257,1.02937567,0.0892058238,0,0.322273642,0.407304645,-0,1515,1951,1549,1216,11.8500004,10.75,21.6700001,0.319999993,0.469999999,0.540000021,0,0,1,0,0
1.165118,1783675215.107185,18,-2.8296206,-3.14510798,-11.6348648,0,0.0508033261,0.00236273231,0.995265126,0.163994372,0.172949538,0.0883231983,102.388008,992.241394,0,0.131000012,0.136018366,2.92211986,0.123058945,3.00442529,0.0129594207,-0.0823054314,0.995984197,1.00800002,-2.41000009,-2.5999999,-3,-0.200000003,0,0,3.0999999,3,2.5,-8.30197387e-05,0.000153016343,7.55310066e-06,-8.36838936e-08,1.54240468e-07,0,0,0.0868671387,-0.029978944,1.11858153,0.729578257,1.02937567,0.0892058238,0,0.322273642,0.407304645,-0,1515,1951,1549,1216,11.8500004,10.75,21.6700001,0.319999993,0.469999999,0.540000021,0,0,1,0,0
1.196152,1783675215.138218,19,-2.83047462,-3.15105534,-11.6303082,0,0.0505136922,0.00294098211,0.994765043,0.0989369825,0.122390866,0.0906364694,102.438004,992.241394,0,0.753000021,0.169392139,2.90694261,0.122066967,2.99851513,0.0473251715,-0.0915725231,0.995984197,1.00800002,-2.41000009,-2.5999999,-3,-0.200000003,0,0,3.0999999,3,2.5,-5.2524807e-05,9.56557342e-05,-2.24876421e-05,-5.29450048e-08,9.64209761e-08,0,0,0.0868671387,-0.029978944,1.11858153,0.729578257,1.02937567,0.0892058238,0,0.322273642,0.407304645,-0,1515,1951,1549,1216,11.8500004,10.75,21.6700001,0.319999993,0.469999999,0.540000021,0,0,1,0,0
1.258375,1783675215.200442,20,-2.83329058,-3.14762259,-11.6261406,0,0.0530874394,0.00197603554,0.994533062,0.124454886,0.12301816,0.0868829265,102.488007,992.241394,0,0.356000006,0.113840714,3.05550051,0.119463541,3.00136304,-0.00562282652,0.0541374683,0.99598819,1.00699997,-2.41000009,-2.5999999,-3,-0.200000003,0,0,3.0999999,3,2.5,-3.58915349e-05,-2.45329375e-05,5.90515156e-05,-3.61427759e-08,-2.47046668e-08,0,0,0.0868671387,-0.029978944,1.11858153,0.729578257,1.02937567,0.0892058238,0,0.322273642,0.407304645,-0,1515,1951,1549,1216,11.8500004,10.75,21.6700001,0.319999993,0.469999999,0.540000021,0,0,1,0,0
1.319909,1783675215.261975,21,-2.83452392,-3.14795327,-11.6213379,0,0.0514937267,0.00246042549,0.994560003,0.0867760926,0.147874594,0.0911396295,102.538002,992.241394,0,0.088000007,0.141742781,2.9638555,0.118115798,3.00139546,0.0236269832,-0.037539959,0.996111214,0.975999951,-2.41000009,-2.5999999,-3,-0.200000003,0,0,3.0999999,3,2.5,0,0,0,0,0,0,0,0.0868671387,-0.029978944,1.11858153,0.729578257,1.02937567,0.0892058238,0,0.322273642,0.407304645,-0,1515,1951,1549,1216,11.8500004,10.75,21.6700001,0.319999993,0.469999999,0.540000021,0,0,1,0,0
1.383459,1783675215.325526,22,-2.8317368,-3.14651513,-11.6177597,0,0.0507799461,0.00357981981,0.994589567,0.113659285,0.167449698,0.0928371847,102.588005,992.241394,0,0.582000017,0.206223443,2.92274714,0.120642409,3.00301838,0.0855810344,-0.080271244,0.995881081,1.03399992,-2.41000009,-2.5999999,-3,-0.200000003,0,0,3.0999999,3,2.5,1.33520371e-05,-0.000157302624,-5.60760509e-06,1.38060061e-08,-1.62650906e-07,0,0,0.0868671387,-0.029978944,1.11858153,0.729578257,1.02937567,0.0892058238,0,0.322273642,0.407304645,-0,1515,1951,1549,1216,11.8500004,10.75,21.6700001,0.319999993,0.469999999,0.540000021,0,0,1,0,0
1.447316,1783675215.389382,23,-2.8302145,-3.14913487,-11.6134357,0,0.0513245538,0.00308033847,0.994568884,0.111293986,0.190203935,0.120730564,102.638008,992.241394,0,0.18900001,0.177453592,2.95410395,0.122295946,3.0002532,0.0551576465,-0.0461492538,0.99598819,1.00699997,-2.41000009,-2.5999999,-3,-0.200000003,0,0,3.0999999,3,2.5,-7.81202325e-05,-9.1670423e-05,0.000173320776,-7.86670711e-08,-9.23121135e-08,0,0,0.0868671387,-0.029978944,1.11858153,0.729578257,1.02937567,0.0892058238,0,0.322273642,0.407304645,-0,1515,1951,1549,1216,11.8500004,10.75,21.6700001,0.319999993,0.469999999,0.540000021,0,0,1,0,0
1.509396,1783675215.451463,24,-2.82718253,-3.15334082,-11.6085987,0,0.0510210954,0.00304836268,0.994353294,0.0974343717,0.206283346,0.109543093,102.688004,992.241394,0,0.833000064,0.175649613,2.93730426,0.125347197,2.99609804,0.0503024161,-0.0587937832,0.99598819,1.00699997,-2.41000009,-2.5999999,-3,-0.200000003,0,0,3.0999999,3,2.5,-5.35494109e-05,-4.07915941e-05,-9.1552738e-07,-5.39242571e-08,-4.10771364e-08,0,0,0.0868671387,-0.029978944,1.11858153,0.729578257,1.02937567,0.0892058238,0,0.322273642,0.407304645,-0,1515,1951,1549,1216,11.8500004,10.75,21.6700001,0.319999993,0.469999999,0.540000021,0,0,1,0,0
1.540425,1783675215.482492,25,-2.82738733,-3.15051651,-11.6037025,0,0.0511121154,0.00227963715,0.994216263,0.0959599689,0.182047933,0.100165084,102.738007,992.241394,0,0.414000034,0.131373197,2.9429462,0.125320062,2.9989109,0.0060531348,-0.0559647083,0.99598819,1.00699997,-2.41000009,-2.5999999,-3,-0.200000003,0,0,3.0999999,3,2.5,-7.08746957e-05,-4.50671469e-05,0.000120563513,-7.13708204e-08,-4.53826168e-08,0,0,0.0868671387,-0.029978944,1.11858153,0.729578257,1.02937567,0.0892058238,0,0.322273642,0.407304645,-0,1515,1951,1549,1216,11.8500004,10.75,21.6700001,0.319999993,0.469999999,0.540000021,0,0,1,0,0
1.603441,1783675215.545508,26,-2.83069324,-3.14914727,-11.5993004,0,0.0505448096,0.00227061519,0.994565427,0.127688497,0.197932392,0.0456795841,102.788002,992.241394,0,0.0950000063,0.130807325,2.90931821,0.122002944,3.00042319,0.00880438089,-0.0911049843,0.995964289,1.01300001,-2.41000009,-2.5999999,-3,-0.200000003,0,0,3.0999999,3,2.5,0,0,0,0,0,0,0,0.0868671387,-0.029978944,1.11858153,0.729578257,1.02937567,0.0892058238,0,0.322273642,0.407304645,-0,1515,1951,1549,1216,11.8500004,10.75,21.6700001,0.319999993,0.469999999,0.540000021,0,0,1,0,0
1.665673,1783675215.607740,27,-2.83147907,-3.14790821,-11.594923,0,0.0508551933,0.00310283457,0.995584786,0.107869998,0.108393908,0.109985925,102.838005,992.229553,0,0.655000031,0.178567171,2.92415428,0.121021777,3.00160527,0.0575453937,-0.0774509907,0.99598819,1.00699997,-2.41000009,-2.5999999,-3,-0.200000003,0,0,3.0999999,3,2.5,-0.000201158531,-8.92040189e-05,0.000184135439,-2.02566639e-07,-8.98284469e-08,0,0,0.0868671387,-0.029978944,1.11858153,0.729578257,1.02937567,0.0892058238,0,0.322273642,0.407304645,-0,1515,1951,1549,1216,11.8500004,10.75,21.6700001,0.319999993,0.469999999,0.540000021,0,0,1,0,0
1.728222,1783675215.670289,28,-2.83248305,-3.14964604,-11.5903225,0,0.0511754863,0.00247977558,0.994201243,0.0897575468,0.14721939,0.0938042253,102.888008,992.229553,0,0.262000024,0.14290908,2.94663167,0.120157227,2.99977016,0.0227518529,-0.0531384945,0.995984197,1.00800002,-2.41000009,-2.5999999,-3,-0.200000003,0,0,3.0999999,3,2.5,6.59108191e-05,-0.00013059855,3.00979627e-05,6.64381048e-08,-1.31643333e-07,0,0,0.0868671387,-0.029978944,1.11858153,0.729578257,1.02937567,0.0892058238,0,0.322273642,0.407304645,-0,1515,1951,1549,1216,11.8500004,10.75,21.6700001,0.319999993,0.469999999,0.540000021,0,0,1,0,0
1.790973,1783675215.733040,29,-2.82925296,-3.15366745,-11.5858021,0,0.0523310117,0.003188645,0.994214892,0.105525851,0.176515222,0.117807858,102.938004,992.229553,0,0.881000042,0.183758348,3.01299691,0.123235874,2.99546504,0.0605224743,0.0175318718,0.99598819,1.00699997,-2.41000009,-2.5999999,-3,-0.200000003,0,0,3.0999999,3,2.5,0,0,0,0,0,0,0,0.0868671387,-0.029978944,1.11858153,0.729578257,1.02937567,0.0892058238,0,0.322273642,0.407304645,-0,1515,1951,1549,1216,11.8500004,10.75,21.6700001,0.319999993,0.469999999,0.540000021,0,0,1,0,0
1.852909,1783675215.794976,30,-2.8290143,-3.15109372,-11.5811939,0,0.0515163243,0.00355538446,0.995003879,0.10620711,0.177202314,0.0812578648,102.988007,992.229553,0,0.480000019,0.204730526,2.96382332,0.1233906,2.99824739,0.0813399255,-0.0344240665,0.995984197,1.00800002,-2.41000009,-2.5999999,-3,-0.200000003,0,0,3.0999999,3,2.5,-0.00016243459,1.73851856e-06,-4.06265281e-06,-1.63734072e-07,1.75242665e-09,0,0,0.0868671387,-0.029978944,1.11858153,0.729578257,1.02937567,0.0892058238,0,0.322273642,0.407304645,-0,1515,1951,1549,1216,11.8500004,10.75,21.6700001,0.319999993,0.469999999,0.540000021,0,0,1,0,0
1.915243,1783675215.857310,31,-2.82481766,-3.14813733,-11.5764999,0,0.0527319573,0.00267035817,0.994399548,0.0988107845,0.17411527,0.0949304104,103.038002,992.229553,0,0.0980000049,0.153861582,3.0354805,0.127809346,3.00092673,0.0260522366,0.0345537663,0.995980263,1.00899994,-2.41000009,-2.5999999,-3,-0.200000003,0,0,3.0999999,3,2.5,6.54923933e-05,-4.2002499e-05,-4.26292427e-05,6.60818245e-08,-4.23805204e-08,0,0,0.0868671387,-0.029978944,1.11858153,0.729578257,1.02937567,0.0892058238,0,0.322273642,0.407304645,-0,1515,1951,1549,1216,11.8500004,10.75,21.6700001,0.319999993,0.469999999,0.540000021,0,0,1,0,0
1.945845,1783675215.887911,32,-2.82869029,-3.14685297,-11.5724735,0,0.0508349314,0.00285838102,0.994494557,0.0856380239,0.140252367,0.105390184,103.088005,992.190002,0,0.715000033,0.164679363,2.92619228,0.123877637,3.0026567,0.0408017263,-0.0764644146,0.99598819,1.00699997,-2.41000009,-2.5999999,-3,-0.200000003,0,0,3.0999999,3,2.5,0.000144787438,-7.53947752e-05,4.52613858e-05,1.45800954e-07,-7.59225358e-08,0,0,0.0868671387,-0.029978944,1.11858153,0.729578257,1.02937567,0.0892058238,0,0.322273642,0.407304645,-0,1515,1951,1549,1216,11.8500004,10.75,21.6700001,0.319999993,0.469999999,0.540000021,0,0,1,0,0
2.009373,1783675215.951440,33,-2.82976103,-3.14130235,-11.5684338,0,0.0512986369,0.00256685889,0.994987845,0.126503214,0.182146206,0.0577356815,103.138008,992.190002,0,0.303000003,0.147810698,2.95137811,0.122870497,3.00812817,0.0249402002,-0.0567500591,0.99598819,1.00699997,-2.41000009,-2.5999999,-3,-0.200000003,0,0,3.0999999,3,2.5,-4.71067433e-05,-5.33598686e-05,-6.62612947e-05,-4.74364903e-08,-5.37333875e-08,0,0,0.0868671387,-0.029978944,1.11858153,0.729578257,1.02937567,0.0892058238,0,0.322273642,0.407304645,-0,1515,1951,1549,1216,11.8500004,10.75,21.6700001,0.319999993,0.469999999,0.540000021,0,0,1,0,0
2.070857,1783675216.012924,34,-2.83191967,-3.13607693,-11.5641537,0,0.0522851981,0.00237013539,0.994853079,0.101435937,0.114733443,0.0657021031,103.188004,992.190002,0,0.0960000008,0.136501059,3.00844359,0.120748684,3.01314473,0.0157523751,-0.00470113754,0.995992124,1.00599992,-2.41000009,-2.5999999,-3,-0.200000003,0,0,3.0999999,3,2.5,0,0,0,0,0,0,0,0.0868671387,-0.029978944,1.11858153,0.729578257,1.02937567,0.0892058238,0,0.322273642,0.407304645,-0,1515,1951,1549,1216,11.8500004,10.75,21.6700001,0.319999993,0.469999999,0.540000021,0,0,1,0,0
2.132443,1783675216.074509,35,-2.82910657,-3.13013053,-11.5594101,0,0.0516919829,0.00294739706,0.99518609,0.119797878,0.1640843,0.113976538,103.238007,992.190002,0,0.536000013,0.169689789,2.97337389,0.12343955,3.01925635,0.046250239,-0.0458824635,0.99598819,1.00699997,-2.41000009,-2.5999999,-3,-0.200000003,0,0,3.0999999,3,2.5,0.000100454097,-1.14639852e-05,-2.47764601e-05,1.01157276e-07,-1.15442331e-08,0,0,0.0868671387,-0.029978944,1.11858153,0.729578257,1.02937567,0.0892058238,0,0.322273642,0.407304645,-0,1515,1951,1549,1216,11.8500004,10.75,21.6700001,0.319999993,0.469999999,0.540000021,0,0,1,0,0
2.194118,1783675216.136184,36,-2.82944894,-3.1304884,-11.5551701,0,0.0521389283,0.00254450901,0.993922651,0.076529108,0.166077942,0.048198238,103.288002,992.190002,0,0.159000009,0.146680743,3.00284457,0.123188481,3.01877832,0.0234922618,-0.0159337521,0.99598819,1.00699997,-2.41000009,-2.5999999,-3,-0.200000003,0,0,3.0999999,3,2.5,0.000142303717,-0.000109715096,-8.62312372e-05,1.43299843e-07,-1.104831e-07,0,0,0.0868671387,-0.029978944,1.11858153,0.729578257,1.02937567,0.0892058238,0,0.322273642,0.407304645,-0,1515,1951,1549,1216,11.8500004,10.75,21.6700001,0.319999993,0.469999999,0.540000021,0,0,1,0,0
2.256588,1783675216.198654,37,-2.82659078,-3.1301806,-11.5513992,0,0.0507276021,0.00284522702,0.994623303,0.106373534,0.161915347,0.0336100273,103.338005,992.182068,0,0.779000044,0.163900286,2.91964769,0.125988826,3.01942253,0.0379114598,-0.0997748375,0.99598819,1.00699997,-2.41000009,-2.5999999,-3,-0.200000003,0,0,3.0999999,3,2.5,5.10764148e-05,0.000111671987,9.20677194e-05,5.14339504e-08,1.12453691e-07,0,0,0.0868671387,-0.029978944,1.11858153,0.729578257,1.02937567,0.0892058238,0,0.322273642,0.407304645,-0,1515,1951,1549,1216,11.8500004,10.75,21.6700001,0.319999993,0.469999999,0.540000021,0,0,1,0,0
2.333289,1783675216.275355,38,-2.82719731,-3.12444448,-11.5477314,0,0.0517869145,0.00265231216,0.99491936,0.118760124,0.0957312137,0.0527453311,103.388008,992.182068,0,0.368000031,0.152741969,2.97962427,0.125424564,3.02494049,0.0273174047,-0.0453162193,0.995980263,1.00899994,-2.41000009,-2.5999999,-3,-0.200000003,0,0,3.0999999,3,2.5,-3.19647806e-05,-3.05282338e-05,-3.39889557e-05,-3.2252462e-08,-3.08029868e-08,0,0,0.0868671387,-0.029978944,1.11858153,0.729578257,1.02937567,0.0892058238,0,0.322273642,0.407304645,-0,1515,1951,1549,1216,11.8500004,10.75,21.6700001,0.319999993,0.469999999,0.540000021,0,0,1,0,0
2.364012,1783675216.306079,39,-2.82892609,-3.13310194,-11.543663,0,0.0519984737,0.00263630832,0.996222436,0.113174118,0.0881044716,0.0554582924,103.438004,992.182068,0,0.0910000056,0.151621744,2.98786831,0.12369594,3.01621199,0.0279258043,-0.0283436775,0.996079385,0.984000027,-2.41000009,-2.5999999,-3,-0.200000003,0,0,3.0999999,3,2.5,0,0,0,0,0,0,0,0.0868671387,-0.029978944,1.11858153,0.729578257,1.02937567,0.0892058238,0,0.322273642,0.407304645,-0,1515,1951,1549,1216,11.8500004,10.75,21.6700001,0.319999993,0.469999999,0.540000021,0,0,1,0,0
2.426449,1783675216.368515,40,-2.82899547,-3.13492036,-11.5395508,0,0.050806988,0.00281243352,0.995251358,0.0740053058,0.16651094,0.0964911729,103.488007,992.182068,0,0.599000037,0.161908999,2.92236686,0.123582266,3.01465297,0.0383267328,-0.0922861099,0.995984197,1.00800002,-2.41000009,-2.5999999,-3,-0.200000003,0,0,3.0999999,3,2.5,-2.48765955e-05,-4.01592661e-05,9.74464419e-05,-2.50756074e-08,-4.04805398e-08,0,0,0.0868671387,-0.029978944,1.11858153,0.729578257,1.02937567,0.0892058238,0,0.322273642,0.407304645,-0,1515,1951,1549,1216,11.8500004,10.75,21.6700001,0.319999993,0.469999999,0.540000021,0,0,1,0,0
2.488616,1783675216.430682,41,-2.82796597,-3.13387346,-11.5354176,0,0.051684849,0.00257651671,0.995963097,0.0998252779,0.147596359,0.101820409,103.538002,992.182068,0,0.181000009,0.148221567,2.9706521,0.124671198,3.01550937,0.0235503688,-0.0448572636,0.99598819,1.00699997,-2.41000009,-2.5999999,-3,-0.200000003,0,0,3.0999999,3,2.5,-3.44717519e-05,1.50231654e-05,-3.97682197e-05,-3.47130538e-08,1.5128327e-08,0,0,0.0868671387,-0.029978944,1.11858153,0.729578257,1.02937567,0.0892058238,0,0.322273642,0.407304645,-0,1515,1951,1549,1216,11.8500004,10.75,21.6700001,0.319999993,0.469999999,0.540000021,0,0,1,0,0
2.549388,1783675216.491455,42,-2.82845521,-3.13318133,-11.5311871,0,0.0515645631,0.00209381618,0.995756686,0.0679025427,0.281383574,0.102419607,103.588005,992.261169,0,0.829000056,0.120477885,2.96436739,0.12429215,3.01623511,-0.00381426513,-0.0518677235,0.995881081,1.03399992,-2.41000009,-2.5999999,-3,-0.200000003,0,0,3.0999999,3,2.5,-0.000137743962,0.000123829319,-0.00020633699,-1.42427254e-07,1.28039517e-07,0,0,0.0868671387,-0.029978944,1.11858153,0.729578257,1.02937567,0.0892058238,0,0.322273642,0.407304645,-0,1515,1951,1549,1216,11.8500004,10.75,21.6700001,0.319999993,0.469999999,0.540000021,0,0,1,0,0
2.594911,1783675216.536978,43,-2.83128881,-3.14182067,-11.5271721,0,0.0501330122,0.00199449132,0.995081306,0.121810645,0.145272255,0.0662939623,103.638008,992.261169,0,0.408000022,0.114840642,2.88416386,0.121469311,3.00787783,-0.0066286698,-0.12371397,0.995992124,1.00599992,-2.41000009,-2.5999999,-3,-0.200000003,0,0,3.0999999,3,2.5,-0.000177805428,-2.21123555e-05,-0.000130634318,-1.78872256e-07,-2.22450289e-08,0,0,0.0868671387,-0.029978944,1.11858153,0.729578257,1.02937567,0.0892058238,0,0.322273642,0.407304645,-0,1515,1951,1549,1216,11.8500004,10.75,21.6700001,0.319999993,0.469999999,0.540000021,0,0,1,0,0
2.663225,1783675216.605292,44,-2.83054805,-3.14860892,-11.5228214,0,0.0496942848,0.00233712653,0.994515896,0.0973539427,0.151303098,0.0945985541,103.688004,992.261169,0,0.0940000042,0.134645641,2.86058664,0.122133672,3.00115442,0.0125119686,-0.14056778,0.996011972,1.00100005,-2.41000009,-2.5999999,-3,-0.200000003,0,0,3.0999999,3,2.5,0,0,0,0,0,0,0,0.0868671387,-0.029978944,1.11858153,0.729578257,1.02937567,0.0892058238,0,0.322273642,0.407304645,-0,1515,1951,1549,1216,11.8500004,10.75,21.6700001,0.319999993,0.469999999,0.540000021,0,0,1,0,0
2.703934,1783675216.646001,45,-2.83138013,-3.15487981,-11.5186825,0,0.0512467474,0.00284569361,0.994859159,0.109315656,0.143428549,0.0752884746,103.738007,992.261169,0,0.672000051,0.163888305,2.94877672,0.121179916,2.9945066,0.0427083895,-0.0457298756,0.995984197,1.00800002,-2.41000009,-2.5999999,-3,-0.200000003,0,0,3.0999999,3,2.5,8.31806683e-05,4.20771539e-06,-5.83648716e-06,8.38461105e-08,4.24137703e-09,0,0,0.0868671387,-0.029978944,1.11858153,0.729578257,1.02937567,0.0892058238,0,0.322273642,0.407304645,-0,1515,1951,1549,1216,11.8500004,10.75,21.6700001,0.319999993,0.469999999,0.540000021,0,0,1,0,0
2.764595,1783675216.706662,46,-2.82910776,-3.15208387,-11.5149193,0,0.051761318,0.00230494887,0.994594395,0.0937418789,0.112937003,0.0610835478,103.788002,992.261169,0,0.223000005,0.132781371,2.97912788,0.123586953,2.99719143,0.00919441879,-0.0180635452,0.99598819,1.00699997,-2.41000009,-2.5999999,-3,-0.200000003,0,0,3.0999999,3,2.5,8.68320512e-06,9.29517337e-05,-8.5430147e-05,8.74398776e-09,9.36023952e-08,0,0,0.0868671387,-0.029978944,1.11858153,0.729578257,1.02937567,0.0892058238,0,0.322273642,0.407304645,-0,1515,1951,1549,1216,11.8500004,10.75,21.6700001,0.319999993,0.469999999,0.540000021,0,0,1,0,0
2.827806,1783675216.769873,47,-2.82935357,-3.15291429,-11.5110569,0,0.0513601489,0.00292860344,0.994280696,0.102972679,0.203627467,0.0600793511,103.838005,992.087219,0,0.855000019,0.168761328,2.95700574,0.123195127,2.99644661,0.0455662012,-0.0394408703,0.99598819,1.00699997,-2.41000009,-2.5999999,-3,-0.200000003,0,0,3.0999999,3,2.5,5.60224071e-05,4.03826707e-05,-2.79235846e-05,5.64145637e-08,4.06653484e-08,0,0,0.0868671387,-0.029978944,1.11858153,0.729578257,1.02937567,0.0892058238,0,0.322273642,0.407304645,-0,1515,1951,1549,1216,11.8500004,10.75,21.6700001,0.319999993,0.469999999,0.540000021,0,0,1,0,0
2.890842,1783675216.832909,48,-2.82827401,-3.14997029,-11.5070477,0,0.0521557406,0.00306410366,0.994197786,0.123085432,0.164169073,0.0624235645,103.888008,992.087219,0,0.464000016,0.176584229,3.00297666,0.124246463,2.99921751,0.0523377657,0.00375914574,0.995964289,1.01300001,-2.41000009,-2.5999999,-3,-0.200000003,0,0,3.0999999,3,2.5,6.05964669e-05,1.55121097e-06,-6.46019034e-05,6.13842204e-08,1.57137681e-09,0,0,0.0868671387,-0.029978944,1.11858153,0.729578257,1.02937567,0.0892058238,0,0.322273642,0.407304645,-0,1515,1951,1549,1216,11.8500004,10.75,21.6700001,0.319999993,0.469999999,0.540000021,0,0,1,0,0
2.922846,1783675216.864912,49,-2.8310895,-3.15286088,-11.5031796,0,0.0521960445,0.00213067839,0.994847953,0.0988385826,0.213626266,0.0753436834,103.938004,992.087219,0,0.0890000015,0.122710913,3.00333977,0.121637464,2.9963119,0.00107344985,0.00702786446,0.995702565,1.079,-2.41000009,-2.5999999,-3,-0.200000003,0,0,3.0999999,3,2.5,0,0,0,0,0,0,0,0.0868671387,-0.029978944,1.11858153,0.729578257,1.02937567,0.0892058238,0,0.322273642,0.407304645,-0,1515,1951,1549,1216,11.8500004,10.75,21.6700001,0.319999993,0.469999999,0.540000021,0,0,1,0,0
2.985380,1783675216.927447,50,-2.83179116,-3.14692807,-11.4991531,0,0.0521971993,0.00260868855,0.995093048,0.0621392652,0.234876901,0.0985384062,103.988007,992.087219,0,0.708000004,0.150203541,3.00266457,0.120822459,3.00227332,0.0293810815,0.000391244888,0.995984197,1.00800002,-2.41000009,-2.5999999,-3,-0.200000003,0,0,3.0999999,3,2.5,1.65867805e-05,-8.37206881e-06,-4.42886376e-05,1.67194738e-08,-8.43904502e-09,0,0,0.0868671387,-0.029978944,1.11858153,0.729578257,1.02937567,0.0892058238,0,0.322273642,0.407304645,-0,1515,1951,1549,1216,11.8500004,10.75,21.6700001,0.319999993,0.469999999,0.540000021,0,0,1,0,0
3.062706,1783675217.004773,51,-2.83256936,-3.14215684,-11.4952602,0,0.0522426069,0.00290631037,0.994540095,0.141156703,0.0764370263,0.0648992062,104.038002,992.087219,0,0.265000015,0.167433009,3.00693727,0.119971953,3.00704646,0.0474610552,-0.000109195709,0.99598819,1.00699997,-2.41000009,-2.5999999,-3,-0.200000003,0,0,3.0999999,3,2.5,6.57320052e-05,-9.68097593e-05,-4.06837462e-05,6.61921291e-08,-9.74874226e-08,0,0,0.0868671387,-0.029978944,1.11858153,0.729578257,1.02937567,0.0892058238,0,0.322273642,0.407304645,-0,1515,1951,1549,1216,11.8500004,10.75,21.6700001,0.319999993,0.469999999,0.540000021,0,0,1,0,0
3.124309,1783675217.066375,52,-2.82889819,-3.14058876,-11.4912624,0,0.0526625402,0.00245321309,0.99385047,0.101680458,0.19893007,0.118281096,104.088005,992.225586,0,0.0920000076,0.141428173,3.03316545,0.123761266,3.00851345,0.0176669061,0.0246520042,0.995916784,1.02499998,-2.41000009,-2.5999999,-3,-0.200000003,0,0,3.0999999,3,2.5,0,0,0,0,0,0,0,0.0868671387,-0.029978944,1.11858153,0.729578257,1.02937567,0.0892058238,0,0.322273642,0.407304645,-0,1515,1951,1549,1216,11.8500004,10.75,21.6700001,0.319999993,0.469999999,0.540000021,0,0,1,0,0
3.156173,1783675217.098239,53,-2.82979083,-3.14149308,-11.4873714,0,0.050670702,0.00266444031,0.993884385,0.137276262,0.17022635,0.0549678579,104.138008,992.225586,0,0.547000051,0.153600171,2.91854405,0.122817323,3.0080688,0.0307828486,-0.0895247459,0.99598819,1.00699997,-2.41000009,-2.5999999,-3,-0.200000003,0,0,3.0999999,3,2.5,4.52202585e-05,0.000132078902,0.00011873246,4.5536801e-08,1.33003454e-07,0,0,0.0868671387,-0.029978944,1.11858153,0.729578257,1.02937567,0.0892058238,0,0.322273642,0.407304645,-0,1515,1951,1549,1216,11.8500004,10.75,21.6700001,0.319999993,0.469999999,0.540000021,0,0,1,0,0
3.219306,1783675217.161373,54,-2.83023453,-3.15174794,-11.4832306,0,0.0511228554,0.00272812368,0.995210111,0.0885160193,0.180200994,0.0672089159,104.188004,992.225586,0,0.144000009,0.15706189,2.94062567,0.122357912,2.99768376,0.0347039774,-0.0570580959,0.99598819,1.00699997,-2.41000009,-2.5999999,-3,-0.200000003,0,0,3.0999999,3,2.5,2.46262553e-05,-8.50964352e-06,-9.93919384e-05,2.47986378e-08,-8.56921112e-09,0,0,0.0868671387,-0.029978944,1.11858153,0.729578257,1.02937567,0.0892058238,0,0.322273642,0.407304645,-0,1515,1951,1549,1216,11.8500004,10.75,21.6700001,0.319999993,0.469999999,0.540000021,0,0,1,0,0
3.281925,1783675217.223991,55,-2.83013916,-3.15074158,-11.4792576,0,0.0509798974,0.00261364738,0.995160162,0.129457831,0.158235952,0.0740503222,104.238007,992.225586,0,0.749000013,0.150478914,2.93256497,0.122480139,2.99872661,0.0279987752,-0.0661616325,0.99598819,1.00699997,-2.41000009,-2.5999999,-3,-0.200000003,0,0,3.0999999,3,2.5,4.56511998e-06,-6.18182166e-05,-9.21249466e-06,4.59707561e-09,-6.22509404e-08,0,0,0.0868671387,-0.029978944,1.11858153,0.729578257,1.02937567,0.0892058238,0,0.322273642,0.407304645,-0,1515,1951,1549,1216,11.8500004,10.75,21.6700001,0.319999993,0.469999999,0.540000021,0,0,1,0,0
3.343464,1783675217.285531,56,-2.83134627,-3.16099882,-11.4748707,0,0.0509730242,0.00183649571,0.994615912,0.118255198,0.111208692,0.0836506933,104.288002,992.225586,0,0.316000015,0.105792932,2.93377709,0.12144807,2.98842263,-0.0156551376,-0.0546455383,0.996000051,1.00399995,-2.41000009,-2.5999999,-3,-0.200000003,0,0,3.0999999,3,2.5,9.53900817e-05,-4.01353464e-05,0.000169887557,9.57716395e-08,-4.02958875e-08,0,0,0.0868671387,-0.029978944,1.11858153,0.729578257,1.02937567,0.0892058238,0,0.322273642,0.407304645,-0,1515,1951,1549,1216,11.8500004,10.75,21.6700001,0.319999993,0.469999999,0.540000021,0,0,1,0,0
3.405556,1783675217.347622,57,-2.83201385,-3.17300153,-11.4705372,0,0.0500199459,0.00197193609,0.995507658,0.123718232,0.202409372,0.0686904192,104.338005,991.91333,0,0.0890000015,0.113493316,2.87644005,0.120748051,2.97661924,-0.00725473464,-0.100179195,0.995829523,1.04699993,-2.41000009,-2.5999999,-3,-0.200000003,0,0,3.0999999,3,2.5,0,0,0,0,0,0,0,0.0868671387,-0.029978944,1.11858153,0.729578257,1.02937567,0.0892058238,0,0.322273642,0.407304645,-0,1515,1951,1549,1216,11.8500004,10.75,21.6700001,0.319999993,0.469999999,0.540000021,0,0,1,0,0
3.483027,1783675217.425094,58,-2.83426023,-3.1719873,-11.4666882,0,0.0513535291,0.0029318647,0.994658053,0.0957174003,0.135130033,0.0888920501,104.388008,991.91333,0,0.593000054,0.168885157,2.95550561,0.11826805,2.97730303,0.0506171063,-0.0217974186,0.995984197,1.00800002,-2.41000009,-2.5999999,-3,-0.200000003,0,0,3.0999999,3,2.5,0.000118256808,-1.35994705e-05,0.000119133001,1.19202859e-07,-1.37082665e-08,0,0,0.0868671387,-0.029978944,1.11858153,0.729578257,1.02937567,0.0892058238,0,0.322273642,0.407304645,-0,1515,1951,1549,1216,11.8500004,10.75,21.6700001,0.319999993,0.469999999,0.540000021,0,0,1,0,0
3.514838,1783675217.456904,59,-2.83051443,-3.17662573,-11.4616623,0,0.0505648516,0.00289163506,0.994420409,0.150548294,0.120674841,0.103832245,104.438004,991.91333,0,0.134000003,0.166607618,2.91088891,0.12203826,2.97282553,0.0445693582,-0.0619366169,0.99598819,1.00699997,-2.41000009,-2.5999999,-3,-0.200000003,0,0,3.0999999,3,2.5,-1.9739271e-05,-4.01672014e-06,-6.28280686e-05,-1.98774455e-08,-4.04483691e-09,0,0,0.0868671387,-0.029978944,1.11858153,0.729578257,1.02937567,0.0892058238,0,0.322273642,0.407304645,-0,1515,1951,1549,1216,11.8500004,10.75,21.6700001,0.319999993,0.469999999,0.540000021,0,0,1,0,0
3.577157,1783675217.519224,60,-2.82930088,-3.17666149,-11.4574757,0,0.0514044389,0.00297488831,0.995298624,0.0921899974,0.23848632,0.0765767246,104.488007,991.91333,0,0.82100004,0.17125316,2.95652962,0.12323796,2.97260594,0.0480151996,-0.0160763264,0.995984197,1.00800002,-2.41000009,-2.5999999,-3,-0.200000003,0,0,3.0999999,3,2.5,0.000108661654,-8.62564957e-06,4.16564944e-05,1.09530944e-07,-8.69465477e-09,0,0,0.0868671387,-0.029978944,1.11858153,0.729578257,1.02937567,0.0892058238,0,0.322273642,0.407304645,-0,1515,1951,1549,1216,11.8500004,10.75,21.6700001,0.319999993,0.469999999,0.540000021,0,0,1,0,0
3.640683,1783675217.582750,61,-2.82776976,-3.17636967,-11.4533024,0,0.0504578985,0.00260861916,0.994865954,0.13049686,0.128902823,0.0920948386,104.538002,991.91333,0,0.362000018,0.150233835,2.90344596,0.124860078,2.97311258,0.0253737569,-0.0696666241,0.99598819,1.00699997,-2.41000009,-2.5999999,-3,-0.200000003,0,0,3.0999999,3,2.5,-4.44746038e-05,-0.000116329422,1.48773197e-05,-4.47859243e-08,-1.17143728e-07,0,0,0.0868671387,-0.029978944,1.11858153,0.729578257,1.02937567,0.0892058238,0,0.322273642,0.407304645,-0,1515,1951,1549,1216,11.8500004,10.75,21.6700001,0.319999993,0.469999999,0.540000021,0,0,1,0,0
3.672231,1783675217.614297,62,-2.82935286,-3.1784265,-11.4498177,0,0.0517606586,0.0022574882,0.994616866,0.105375759,0.149677828,0.0676558465,104.588005,992.379822,0,0.0930000022,0.130044356,2.97902322,0.123351276,2.97074223,0.00669308007,0.00828099251,0.995877028,1.03499997,-2.41000009,-2.5999999,-3,-0.200000003,0,0,3.0999999,3,2.5,0,0,0,0,0,0,0,0.0868671387,-0.029978944,1.11858153,0.729578257,1.02937567,0.0892058238,0,0.322273642,0.407304645,-0,1515,1951,1549,1216,11.8500004,10.75,21.6700001,0.319999993,0.469999999,0.540000021,0,0,1,0,0
3.735862,1783675217.677928,63,-2.83137083,-3.17329764,-11.4456081,0,0.0519186445,0.00278027728,0.994881868,0.104366161,0.113316461,0.102667674,104.638008,992.379822,0,0.602000058,0.160117239,2.98730111,0.121204577,2.97585917,0.0389126614,0.011441946,0.99598819,1.00699997,-2.41000009,-2.5999999,-3,-0.200000003,0,0,3.0999999,3,2.5,4.11844267e-05,-8.34465463e-05,-0.000164165496,4.14727168e-08,-8.4030674e-08,0,0,0.0868671387,-0.029978944,1.11858153,0.729578257,1.02937567,0.0892058238,0,0.322273642,0.407304645,-0,1515,1951,1549,1216,11.8500004,10.75,21.6700001,0.319999993,0.469999999,0.540000021,0,0,1,0,0
3.798059,1783675217.740125,64,-2.83159065,-3.168226,-11.4406376,0,0.0509384461,0.00218038331,0.995028257,0.0868665874,0.207019731,0.049620077,104.688004,992.379822,0,0.199000016,0.125550762,2.93057561,0.121123038,2.98118019,0.00442772359,-0.0506045818,0.995980263,1.00899994,-2.41000009,-2.5999999,-3,-0.200000003,0,0,3.0999999,3,2.5,2.66861935e-05,7.88256584e-05,7.03239493e-05,2.69263687e-08,7.95350914e-08,0,0,0.0868671387,-0.029978944,1.11858153,0.729578257,1.02937567,0.0892058238,0,0.322273642,0.407304645,-0,1515,1951,1549,1216,11.8500004,10.75,21.6700001,0.319999993,0.469999999,0.540000021,0,0,1,0,0
3.861361,1783675217.803428,65,-2.83079457,-3.16697192,-11.4365635,0,0.0516899563,0.00303628133,0.995304108,0.122530691,0.14922072,0.110700324,104.738007,992.379822,0,0.855000019,0.174786344,2.97290468,0.121723935,2.98226857,0.0530624092,-0.00936388969,0.995984197,1.00800002,-2.41000009,-2.5999999,-3,-0.200000003,0,0,3.0999999,3,2.5,-9.42027618e-05,1.14143641e-05,0.000120620731,-9.49563841e-08,1.15056791e-08,0,0,0.0868671387,-0.029978944,1.11858153,0.729578257,1.02937567,0.0892058238,0,0.322273642,0.407304645,-0,1515,1951,1549,1216,11.8500004,10.75,21.6700001,0.319999993,0.469999999,0.540000021,0,0,1,0,0
3.935045,1783675217.877112,66,-2.83333659,-3.16348052,-11.432436,0,0.0518221445,0.00230151834,0.995155394,0.0569279268,0.106510319,0.11461477,104.788002,992.379822,0,0.42900002,0.132509008,2.98094416,0.119342133,2.98574162,0.0131668746,-0.00479745865,0.995980263,1.00899994,-2.41000009,-2.5999999,-3,-0.200000003,0,0,3.0999999,3,2.5,-0.000147092345,-0.000149987463,-9.68742388e-05,-1.48416177e-07,-1.51337346e-07,0,0,0.0868671387,-0.029978944,1.11858153,0.729578257,1.02937567,0.0892058238,0,0.322273642,0.407304645,-0,1515,1951,1549,1216,11.8500004,10.75,21.6700001,0.319999993,0.469999999,0.540000021,0,0,1,0,0
3.970737,1783675217.912803,67,-2.82869196,-3.17132092,-11.4278545,0,0.0511174239,0.00322764437,0.994165421,0.0962408483,0.203727424,0.107681192,104.838005,992.320496,0,0.088000007,0.186015069,2.94339395,0.12377733,2.97802782,0.0622377396,-0.0346338749,0.995785773,1.05799997,-2.41000009,-2.5999999,-3,-0.200000003,0,0,3.0999999,3,2.5,0,0,0,0,0,0,0,0.0868671387,-0.029978944,1.11858153,0.729578257,1.02937567,0.0892058238,0,0.322273642,0.407304645,-0,1515,1951,1549,1216,11.8500004,10.75,21.6700001,0.319999993,0.469999999,0.540000021,0,0,1,0,0
4.033287,1783675217.975353,68,-2.83141565,-3.16861749,-11.4233742,0,0.0512201861,0.00326656154,0.994792879,0.103505284,0.187573969,0.0724989399,104.888008,992.320496,0,0.673000038,0.18813917,2.94744325,0.12104661,2.98071909,0.0670925602,-0.0332758427,0.995984197,1.00800002,-2.41000009,-2.5999999,-3,-0.200000003,0,0,3.0999999,3,2.5,-8.71396114e-05,-1.68170045e-05,3.6163332e-05,-8.78367246e-08,-1.69515406e-08,0,0,0.0868671387,-0.029978944,1.11858153,0.729578257,1.02937567,0.0892058238,0,0.322273642,0.407304645,-0,1515,1951,1549,1216,11.8500004,10.75,21.6700001,0.319999993,0.469999999,0.540000021,0,0,1,0,0
4.095362,1783675218.037428,69,-3.06632662,-3.29471445,-11.456213,0,0.0481927134,0.0254814457,0.972447276,-2.15432096,-3.36121058,-0.113963172,105.340004,993.096191,0,0.123000003,1.50100207,2.83618116,-0.120098531,2.85456204,1.62110066,-0.0183808804,0.99598819,1.00699997,-2.41000009,-2.5999999,-3,-0.200000003,0,0,3.0999999,3,2.5,0,0,0,0,0,0,0,0.0868671387,-0.029978944,1.11858153,0.729578257,1.02937567,0.0892058238,0,0.322273642,0.407304645,-0,1515,1951,1549,1216,11.8500004,10.75,21.6700001,0.319999993,0.469999999,0.540000021,0,0,1,0,0
4.158966,1783675218.101032,70,-2.77120924,-3.35110831,-11.4664288,0,0.0294845998,-0.00337857543,0.996634722,5.11005449,-2.33261824,-1.91663313,105.390007,993.096191,0,0.692000031,-0.194231018,1.69454348,0.183038935,2.80254841,-0.377269953,-1.10800493,0.995980263,1.00899994,-2.41000009,-2.5999999,-3,-0.200000003,0,0,3.0999999,3,2.5,0,0,0,0,0,0,0,0.0868671387,-0.029978944,1.11858153,0.729578257,1.02937567,0.0892058238,0,0.322273642,0.407304645,-0,1515,1951,1549,1216,11.8500004,10.75,21.6700001,0.319999993,0.469999999,0.540000021,0,0,1,0,0
4.190181,1783675218.132248,71,-2.88302279,-3.11727357,-11.4605751,0,0.038522739,0.00234295591,0.997845888,1.6864661,3.33781338,1.81114745,105.440002,993.096191,0,0.282000005,0.134531021,2.21085119,0.0694472641,3.03524303,0.065083757,-0.824391842,0.995980263,1.00899994,-2.41000009,-2.5999999,-3,-0.200000003,0,0,3.0999999,3,2.5,0,0,0,0,0,0,0,0.0868671387,-0.029978944,1.11858153,0.729578257,1.02937567,0.0892058238,0,0.322273642,0.407304645,-0,1515,1951,1549,1216,11.8500004,10.75,21.6700001,0.319999993,0.469999999,0.540000021,0,0,1,0,0
4.253741,1783675218.195808,72,-3.50703406,-3.40301228,-11.4565296,0,0.0206438452,-0.0483433418,0.997642279,0.112083748,-0.79329443,1.78620732,105.490005,993.096191,0,0.0890000015,-2.7742455,1.18404233,-0.545120835,2.75265145,-2.22912455,-1.56860912,0.995881081,1.03399992,-2.41000009,-2.5999999,-3,-0.200000003,0,0,3.0999999,3,2.5,0.00193973246,-0.00330506288,-0.000753765111,2.0056832e-06,-3.41743498e-06,0,0,0.0868671387,-0.029978944,1.11858153,0.729578257,1.02937567,0.0892058238,0,0.322273642,0.407304645,-0,1515,1951,1549,1216,11.8500004,10.75,21.6700001,0.319999993,0.469999999,0.540000021,0,0,1,0,0
4.317459,1783675218.259525,73,-3.50736427,-3.47097421,-11.4490585,0,0.00441911723,-0.0207478851,1.00585389,0.135788634,-1.59307456,3.79710054,105.540009,993.096191,0,0.495000035,-1.18168032,0.251668036,-0.552104235,2.6880126,-0.629576087,-2.43634462,0.995984197,1.00800002,-2.41000009,-2.5999999,-3,-0.200000003,0,0,3.0999999,3,2.5,0,0,0,0,0,0,0,0.0868671387,-0.029978944,1.11858153,0.729578257,1.02937567,0.0892058238,0,0.322273642,0.407304645,-0,1515,1951,1549,1216,11.8500004,10.75,21.6700001,0.319999993,0.469999999,0.540000021,0,0,1,0,0
4.363178,1783675218.305244,74,-3.43974662,-3.35148716,-11.4553261,0,0.0307109039,0.00574078644,0.997174084,-0.824123621,1.10518241,-0.97844094,105.590004,991.928589,0,0.136000007,0.329851329,1.76400495,-0.490311891,2.80188775,0.82016325,-1.0378828,0.995980263,1.00899994,-2.41000009,-2.5999999,-3,-0.200000003,0,0,3.0999999,3,2.5,-0.0121067353,-0.00893349387,-0.0119579863,-1.88470804e-05,-1.07987453e-05,0,0,6.63138462e-06,1.78484925e-06,7.85861557e-05,-1.91888066e-05,7.85819138e-05,4.24408642e-09,0,-1.91871295e-05,-1.67775838e-09,0,1416,1887,1546,1226,11.8500004,10.75,21.6700001,0.319999993,0.469999999,0.540000021,0,0,1,0,0
4.439075,1783675218.381142,75,-3.35619569,-3.29778457,-11.4348164,0,0.0510692075,-0.00111006014,0.992236078,-0.794076085,-2.84649825,1.11053634,105.640007,991.928589,0,0.709000051,-0.0640994012,2.9463439,-0.404831052,2.85103607,0.340731651,0.095307827,0.99598819,1.00699997,-2.41000009,-2.5999999,-3,-0.200000003,0,0,3.0999999,3,2.5,0.0740667507,-0.0531372167,-0.0788564309,0.00428518094,-0.000108009677,0,0,-0.00421059551,5.45005023e-05,-0.0499232188,-0.000584733265,-0.0498955585,-2.7660557e-05,-0,-0.000585880422,1.14716681e-06,0,1472,1888,1545,1231,11.8500004,10.75,21.6700001,0.319999993,0.469999999,0.540000021,0,0,1,0,0
4.501465,1783675218.443531,76,-3.28881717,-3.3793869,-11.4098167,0,0.0168057717,-0.0261871684,0.997769594,0.136095583,-0.541217327,-0.239366144,105.690002,991.928589,0,0.623000026,-1.50342321,0.964628935,-0.331369579,2.77710891,-1.17205358,-1.81247997,0.995976269,1.00999999,-2.41000009,-2.5999999,-3,-0.200000003,0,0,3.0999999,3,2.5,-0.010880514,0.00547957513,-0.081585899,0.0078663677,-0.00284152944,0,0,-0.0078773573,0.00284706382,-0.0934782922,-0.0306318123,-0.0933466852,-0.000131609268,-0,-0.0306059364,-2.58767541e-05,0,1447,1874,1545,1231,11.8500004,10.75,21.6700001,0.319999993,0.469999999,0.540000021,0,0,1,0,0
4.563344,1783675218.505411,77,-3.28896499,-3.39961958,-11.4079819,0,0.0469562039,0.0352229923,0.996060133,1.25580204,-1.02874815,-2.00502014,105.740005,991.928589,0,0.088000007,2.02526736,2.69735241,-0.344602466,2.7497685,2.36986971,-0.0524160862,0.996468544,0.885999978,-2.41000009,-2.5999999,-3,-0.200000003,0,0,3.0999999,3,2.5,0.0214980301,0.00347382016,-0.0715444833,0.00803373661,-0.00394767243,0,0,-0.00798951089,0.00398404012,-0.0949282572,-0.0429395959,-0.0946757048,-0.000252550817,-0,-0.0428284295,-0.000111165304,-0,1453,1855,1545,1228,11.8500004,10.75,21.6700001,0.319999993,0.469999999,0.540000021,0,0,1,0,0
4.593542,1783675218.535609,78,-3.24300528,-3.42453241,-11.4296227,0,-0.0194295831,0.0240629278,0.996776104,-0.639279068,-1.48096287,0.140915632,105.790009,991.928589,0,0.538000047,1.38289475,-1.1163671,-0.297066957,2.74026537,1.67996168,-3.85663247,0.995956361,1.0150001,-2.41000009,-2.5999999,-3,-0.200000003,0,0,3.0999999,3,2.5,-0.00771675259,-0.11058674,-0.0736523047,0.0102950456,-0.00416160049,0,0,-0.010302878,0.00404935516,-0.122488901,-0.0437426455,-0.12208911,-0.000399793993,-0,-0.0435305685,-0.000212078245,0,1449,1881,1545,1230,11.8500004,10.75,21.6700001,0.319999993,0.469999999,0.540000021,0,0,1,0,0
4.688358,1783675218.630425,79,-3.26848984,-3.49491763,-11.4497681,0,0.0274841338,-0.0482548103,1.00786877,0.0144768357,0.440211087,-0.25197953,105.840004,992.249268,0,0.445000023,-2.74111795,1.56025696,-0.305969447,2.6587007,-2.43514848,-1.09844375,0.995980263,1.00899994,-2.41000009,-2.5999999,-3,-0.200000003,0,0,3.0999999,3,2.5,-0.0354481451,0.0288812742,-0.135334536,0.0103932144,-0.00444948627,0,0,-0.0104289819,0.00447862735,-0.124147072,-0.0484547392,-0.123583436,-0.000563639973,0,-0.0481452458,-0.00030949412,0,1434,1883,1545,1229,11.8500004,10.75,21.6700001,0.319999993,0.469999999,0.540000021,0,0,1,0,0
4.719025,1783675218.661092,80,-3.15559888,-3.46863365,-11.4396954,0,0.0702864602,0.0348868892,1.00477064,-0.396448255,-0.308137417,-2.45793843,105.890007,992.249268,0,0.563000023,1.98858202,3.9990766,-0.213307202,2.6742878,2.20188928,1.32478881,0.995258629,1.19099998,-2.41000009,-2.5999999,-3,-0.200000003,0,0,3.0999999,3,2.5,-0.0150399115,-0.161029235,-0.0804930255,0.00983057171,-0.00651247893,0,0,-0.00984848384,0.00632069306,-0.117429242,-0.0683741644,-0.116704538,-0.000724699697,0,-0.0679474473,-0.000426719227,0,1460,1872,1547,1223,11.8500004,10.75,21.6700001,0.319999993,0.469999999,0.540000021,0,0,1,0,0
4.782834,1783675218.724901,81,-3.06000662,-3.43529606,-11.4290161,0,0.0440189391,0.0202586278,0.990350842,-0.894373834,-1.01536155,-1.68965125,105.940002,992.249268,0,0.612000048,1.17187965,2.54446602,-0.112432621,2.71458983,1.28431225,-0.170123816,0.995984197,1.00800002,-2.41000009,-2.5999999,-3,-0.200000003,0,0,3.0999999,3,2.5,-0.0632490814,-0.137077376,-0.138387814,0.00890422333,-0.0109723294,0,0,-0.00896797795,0.0108341556,-0.107144848,-0.117101558,-0.106270544,-0.000874302757,0,-0.11646717,-0.000634386612,0,1463,1879,1545,1231,11.8500004,10.75,21.6700001,0.319999993,0.469999999,0.540000021,0,0,1,0,0
4.844532,1783675218.786599,82,-3.18940353,-3.41281414,-11.4255428,0,0.105091542,-0.000445406884,1.0022676,0.800462902,1.44440889,2.41647267,105.990005,992.249268,0,0.074000001,-0.0254621953,5.98580551,-0.237224415,2.72788811,0.21176222,3.2579174,0.997390807,0.653999984,-2.41000009,-2.5999999,-3,-0.200000003,0,0,3.0999999,3,2.5,-0.0586449355,0.207138017,-0.0556112975,0.0098610688,-0.0100219315,0,0,-0.0100349365,0.0104591222,-0.119947426,-0.113342457,-0.118914001,-0.00103342324,0,-0.112435564,-0.000906894449,-0,1449,1859,1547,1222,11.8500004,10.75,21.6700001,0.319999993,0.469999999,0.540000021,0,0,1,0,0
4.905763,1783675218.847830,83,-3.26852465,-3.22355628,-11.4327965,0,0.0350606814,0.00769799948,0.99022913,-2.00894666,1.92192388,2.8768189,106.040009,992.249268,0,0.547000051,0.44540602,2.02774262,-0.318786114,2.92917705,0.764192104,-0.901434422,0.996083379,0.98300004,-2.41000009,-2.5999999,-3,-0.200000003,0,0,3.0999999,3,2.5,0.235184982,-0.0277546886,-0.0806288198,0.012811156,-0.00288936775,0,0,-0.0125799691,0.00286208489,-0.150268942,-0.0318197012,-0.149072632,-0.00119631446,-0,-0.0307674129,-0.00105228822,-0,1418,1899,1546,1228,11.8500004,10.75,21.6700001,0.319999993,0.469999999,0.540000021,0,0,1,0,0
4.967479,1783675218.909545,84,-3.23992729,-3.36263824,-11.408699,0,-0.102853522,-0.0278589707,0.982056201,-1.16165113,-5.847013,0.0209488869,106.090004,992.055603,0,0.134000003,-1.62493098,-5.97656441,-0.28179124,2.8219676,-1.34313977,-8.79853249,0.995976269,1.00999999,-2.41000009,-2.5999999,-3,-0.200000003,0,0,3.0999999,3,2.5,-0.221697941,-0.0723842755,-0.0805731714,0.015423133,-0.00277576828,0,0,-0.0156470481,0.00270266016,-0.186852306,-0.030159656,-0.185417533,-0.00143477775,0,-0.0290535968,-0.00110605918,0,1489,1899,1547,1223,11.8500004,10.75,21.6700001,0.319999993,0.469999999,0.540000021,0,0,1,0,0
4.998247,1783675218.940313,85,-3.21750855,-3.20362949,-11.4179974,0,0.077064544,0.0153960073,0.989432335,0.0593090653,6.70040751,3.67412186,106.140007,992.055603,0,0.729000032,0.891475856,4.4531045,-0.269536078,2.93936825,1.16101193,1.51373625,0.99590081,1.02900004,-2.41000009,-2.5999999,-3,-0.200000003,0,0,3.0999999,3,2.5,0.148049757,0.00241456833,-0.123698488,0.0172334854,-0.00414402829,0,0,-0.0170811415,0.00414651306,-0.204092756,-0.0457642041,-0.202411532,-0.00168121641,-0,-0.0445750169,-0.00118918845,-0,1385,1871,1543,1235,11.8500004,10.75,21.6700001,0.319999993,0.469999999,0.540000021,0,0,1,0,0
5.059131,1783675219.001197,86,-3.20065117,-3.23955154,-11.3926411,0,0.106091514,0.0551517867,0.973713696,-1.24612439,3.13540602,3.28028822,106.190002,992.055603,0,0.352000028,3.24180698,6.20829201,-0.26203236,2.89631152,3.50383925,3.31198049,0.995972216,1.01100004,-2.41000009,-2.5999999,-3,-0.200000003,0,0,3.0999999,3,2.5,0.104845509,-0.0340414271,-0.0422744304,0.0163902082,-0.00361404009,0,0,-0.0162842087,0.00357962423,-0.194925621,-0.0397683606,-0.192967877,-0.00195773947,-0,-0.0384809598,-0.0012874013,-0,1412,1886,1544,1233,11.8500004,10.75,21.6700001,0.319999993,0.469999999,0.540000021,0,0,1,0,0
5.120675,1783675219.062741,87,-3.22638583,-3.2884295,-11.3459473,0,-0.0962346569,-0.0410746783,1.00428617,-0.221961886,-4.19335604,-0.813599586,106.240005,992.055603,0,0.386000007,-2.34205627,-5.46905041,-0.266704321,2.88876176,-2.07535195,-8.35781193,0.996651232,0.839999974,-2.41000009,-2.5999999,-3,-0.200000003,0,0,3.0999999,3,2.5,-0.0950731784,0.0207414702,-0.106537752,0.0177362412,-0.00272330618,0,0,-0.0178282186,0.00274036615,-0.213489398,-0.0308229104,-0.211264402,-0.00222500088,-0,-0.0294589363,-0.00136397488,0,1367,1890,1542,1239,11.8500004,10.75,21.6700001,0.319999993,0.469999999,0.540000021,0,0,1,0,0
5.184489,1783675219.126555,88,-3.24155927,-3.27691984,-11.324152,0,0.163071647,0.0635577515,1.00170088,-0.744490743,2.34686327,2.10520792,106.290009,992.055603,0,0.543000042,3.63054061,9.22810173,-0.304881573,2.8462491,3.93542218,6.38185263,0.995920658,1.02400005,-2.41000009,-2.5999999,-3,-0.200000003,0,0,3.0999999,3,2.5,0.0581894368,0.0322618261,-0.0575916395,0.0173779577,-0.00176113844,0,0,-0.0173183717,0.00179417455,-0.207729146,-0.0207082592,-0.205222711,-0.00250643445,0,-0.0192873757,-0.00142088265,-0,1463,1880,1544,1235,11.8500004,10.75,21.6700001,0.319999993,0.469999999,0.540000021,0,0,1,0,0
5.247278,1783675219.189345,89,-3.27265477,-3.26790237,-11.3068409,0,0.0955063254,0.00761909783,0.998768687,-0.0664518178,-9.94149685,-0.0075724721,106.340004,992.016052,0,0.15200001,0.43707183,5.46208906,-0.322978258,2.87088442,0.760050058,2.59120464,0.995980263,1.00899994,-2.41000009,-2.5999999,-3,-0.200000003,0,0,3.0999999,3,2.5,-0.0195226595,0.07041049,-0.158652827,0.0185966939,-0.000816647778,0,0,-0.0186163913,0.000887691975,-0.22339651,-0.0109970942,-0.220604241,-0.00279226317,0,-0.00954268873,-0.00145440525,-0,1515,1874,1545,1230,11.8500004,10.75,21.6700001,0.319999993,0.469999999,0.540000021,0,0,1,0,0
5.308858,1783675219.250925,90,-3.26708317,-3.19472265,-11.2731609,0,0.130832896,0.0598704554,0.941291332,-0.410846889,-2.49784946,-2.95716643,106.390007,992.016052,0,0.246000007,3.63937235,7.8972578,-0.327035367,2.93862343,3.96640778,4.95863438,0.996802211,0.801999986,-2.41000009,-2.5999999,-3,-0.200000003,0,0,3.0999999,3,2.5,-0.00333368778,-0.00209610537,0.0562886149,0.0202404093,-0.000745687226,0,0,-0.0203104299,0.000791384198,-0.243789002,-0.00998219848,-0.240678608,-0.00311039295,0,-0.00850738026,-0.00147481868,-0,1515,1865,1549,1215,11.8500004,10.75,21.6700001,0.319999993,0.469999999,0.540000021,0,0,1,0,0
5.354029,1783675219.296096,91,-3.39244151,-3.19934535,-11.1612816,0,-0.0189112723,-0.0398549251,1.01898611,0.636282742,5.30754566,9.82095242,106.440002,992.016052,0,0.359000027,-2.23983002,-1.0624131,-0.432444781,2.96605086,-1.80738521,-4.02846384,0.995980263,1.00899994,-2.41000009,-2.5999999,-3,-0.200000003,0,0,3.0999999,3,2.5,0.00144857913,0.0507758036,0.00212623738,0.0193122067,0.00307357754,0,0,-0.0193107445,-0.00302234478,-0.232257351,0.0310349707,-0.228832334,-0.00342502166,-0,0.032490205,-0.0014552339,-0,1367,1887,1543,1238,11.8500004,10.75,21.6700001,0.319999993,0.469999999,0.540000021,0,0,1,0,0
5.416080,1783675219.358146,92,-3.48140407,-3.31987858,-11.0403862,0,0.11081247,0.103357524,0.943660557,-0.0513736606,-1.21785116,4.84462595,106.490005,992.016052,0,0.230000004,6.25059319,6.65801811,-0.546433866,2.81929302,6.79702711,3.83872509,0.997386873,0.654999971,-2.41000009,-2.5999999,-3,-0.200000003,0,0,3.0999999,3,2.5,-0.0834041238,0.0189312622,-0.0841487795,0.0166563336,0.00641422672,0,0,-0.0168904178,-0.00627596211,-0.203874812,0.0661253184,-0.200151458,-0.00372335641,0,0.0674665943,-0.00134127773,-0,1515,1867,1543,1238,11.8500004,10.75,21.6700001,0.319999993,0.469999999,0.540000021,0,0,1,0,0
5.476937,1783675219.419004,93,-3.56287098,-3.28072333,-10.9362354,0,0.0888317898,-0.0626425743,1.03417242,0.845302701,-0.938475966,3.90594149,106.540009,992.016052,0,0.886000037,-3.46632266,4.90051794,-0.598668873,2.8603189,-2.86765385,2.04019904,0.996000051,1.00399995,-2.41000009,-2.5999999,-3,-0.200000003,0,0,3.0999999,3,2.5,0.081239447,0.0517438799,-0.0326660872,0.0161337722,0.0084438147,0,0,-0.0160094053,-0.00835102424,-0.193689212,0.0886084959,-0.189711452,-0.00397776719,-0,0.0897735134,-0.00116501702,0,1426,1876,1541,1244,11.8500004,10.75,21.6700001,0.319999993,0.469999999,0.540000021,0,0,1,0,0
5.538836,1783675219.480903,94,-3.49027348,-3.31129932,-10.8515263,0,0.0043765069,-0.0142849535,0.986841261,0.901662767,1.22488165,0.869971037,106.590004,992.016052,0,0.175000012,-0.829323292,0.254070699,-0.536364138,2.84833169,-0.292959154,-2.59426093,0.995980263,1.00899994,-2.41000009,-2.5999999,-3,-0.200000003,0,0,3.0999999,3,2.5,-0.0974632129,-0.167596444,-0.0745534375,0.0171605609,0.00684810197,0,0,-0.0172589011,-0.00701720687,-0.208773211,0.0744669065,-0.20451799,-0.00425521983,0,0.0754349753,-0.000968065578,0,1397,1875,1542,1241,11.8500004,10.75,21.6700001,0.319999993,0.469999999,0.540000021,0,0,1,0,0
5.601166,1783675219.543233,95,-3.27100706,-3.3577559,-10.8018131,0,0.0434413403,0.0728292763,1.0141592,0.525032341,3.63507414,-1.18830371,106.640007,992.075378,0,0.252000004,4.10750008,2.44646335,-0.335040271,2.7927537,4.44254017,-0.34629035,0.996226311,0.946999967,-2.41000009,-2.5999999,-3,-0.200000003,0,0,3.0999999,3,2.5,-0.091369532,-0.286150038,-0.270189226,0.013505117,-0.00207952433,0,0,-0.0136920949,0.00153485069,-0.166753605,-0.0173956882,-0.162251323,-0.00450228341,0,-0.0164996441,-0.000896044949,0,1430,1857,1540,1245,11.8500004,10.75,21.6700001,0.319999993,0.469999999,0.540000021,0,0,1,0,0
5.632208,1783675219.574275,96,-3.24296665,-3.34563804,-10.6920738,0,0.0499363989,0.0269873645,1.04819393,3.00291586,2.07538843,4.95879269,106.690002,992.075378,0,0.377000004,1.47484207,2.72663045,-0.297366023,2.80387545,1.77220809,-0.077244997,0.995976269,1.00999999,-2.41000009,-2.5999999,-3,-0.200000003,0,0,3.0999999,3,2.5,-0.0902284607,-0.0244230889,-0.423011214,0.0112205679,-0.0100190565,0,0,-0.0113116987,0.00999438949,-0.138741776,-0.108495317,-0.134043634,-0.00469813589,0,-0.107439689,-0.00105562503,0,1419,1828,1536,1257,11.8500004,10.75,21.6700001,0.319999993,0.469999999,0.540000021,0,0,1,0,0
5.726535,1783675219.668602,97,-3.59549046,-3.32430148,-10.1117802,0,0.00354076922,0.0237359609,0.997812986,3.88378334,7.73968935,17.8510571,106.740005,992.075378,0,0.0870000049,1.36269426,0.203257427,-0.649384916,2.83356333,2.01207924,-2.63030601,0.996706903,0.825999975,-2.41000009,-2.5999999,-3,-0.200000003,0,0,3.0999999,3,2.5,-0.0154731562,0.197989747,-0.113308333,0.00839141943,-0.00461880863,0,0,-0.00839266926,0.00505568972,-0.104308382,-0.0555976033,-0.0994531363,-0.00485524302,0,-0.0543486662,-0.00124893757,-0,1489,1803,1520,1297,11.8500004,10.75,21.6700001,0.319999993,0.469999999,0.540000021,0,0,1,0,0
5.757608,1783675219.699675,98,-3.81057835,-3.13794518,-8.93488884,0,0.0149728432,0.0399605893,1.04329908,3.77557302,3.76214051,30.5104637,106.790009,992.075378,0,0.562000036,2.19347906,0.82161814,-0.870466948,3.02031398,3.06394601,-2.1986959,0.995881081,1.03399992,-2.41000009,-2.5999999,-3,-0.200000003,0,0,3.0999999,3,2.5,0.290253103,-0.0642154664,-0.30224362,0.0138429431,0.00223338348,0,0,-0.0135428216,-0.00229978235,-0.165500402,0.0234713536,-0.160482436,-0.00501796883,-0,0.02472266,-0.00125130697,0,1367,1822,1507,1322,11.8500004,10.75,21.6700001,0.319999993,0.469999999,0.540000021,0,0,1,0,0
5.820985,1783675219.763051,99,-3.66070032,-3.46606612,-7.82510757,0,0.0676354766,0.0536546446,1.07928038,2.39123702,-5.72423506,16.5250473,106.840004,992.075378,0,0.17400001,2.84602237,3.58146524,-0.722298443,2.67951465,3.56832075,0.901950598,0.995984197,1.00800002,-2.41000009,-2.5999999,-3,-0.200000003,0,0,3.0999999,3,2.5,-0.119033471,-0.240073487,-0.431853592,0.013426641,-0.00498028053,0,0,-0.013546627,0.0047382866,-0.165776774,-0.0521926023,-0.160527542,-0.00524922973,0,-0.0509365797,-0.00125602272,0,1429,1833,1498,1337,11.8500004,10.75,21.6700001,0.319999993,0.469999999,0.540000021,0,0,1,0,0
5.884694,1783675219.826760,100,-3.1896987,-3.41603422,-7.05443573,0,0.0724212751,0.032495968,0.942421079,-1.46256495,-4.22889662,14.2412395,106.890007,992.012085,0,0.541000009,1.97485447,4.39171457,-0.247902155,2.72496867,2.22275662,1.6667459,0.995080352,1.23599994,-2.41000009,-2.5999999,-3,-0.200000003,0,0,3.0999999,3,2.5,0.265785813,-0.296710551,-0.440664977,0.0178489238,-0.0213862229,0,0,-0.0175204128,0.0210194886,-0.213095695,-0.227516472,-0.207616895,-0.00547880447,-0,-0.22595951,-0.00155696203,0,1515,1884,1499,1337,11.8500004,10.75,21.6700001,0.319999993,0.469999999,0.540000021,0,0,1,0,0
5.946461,1783675219.888528,101,-2.57776356,-3.4378469,-6.41913986,0,0.0968221724,0.0434455983,1.04842794,-3.00094247,-6.25498152,8.66718483,106.940002,992.012085,0,0.353000015,2.37291074,5.27179289,0.366880506,2.70099139,2.00603032,2.5708015,0.995968342,1.01199996,-2.41000009,-2.5999999,-3,-0.200000003,0,0,3.0999999,3,2.5,0.125850871,-0.285573989,-0.563611448,0.0250492804,-0.0381497033,0,0,-0.0249219202,0.0378607027,-0.301158726,-0.409261584,-0.295324773,-0.00583396433,-0,-0.407002568,-0.00225901138,0,1457,1900,1487,1356,11.8500004,10.75,21.6700001,0.319999993,0.469999999,0.540000021,0,0,1,0,0
5.977874,1783675219.919940,102,-2.43784738,-3.09365392,-5.82967949,0,0.0687532946,0.0129491743,1.06353331,-3.27198672,-0.100861788,9.12462902,106.990005,992.012085,0,0.0900000036,0.697577,3.69852948,0.514406323,3.05386686,0.183170676,0.644662619,0.997390807,0.653999984,-2.41000009,-2.5999999,-3,-0.200000003,0,0,3.0999999,3,2.5,0.142712623,0.0981271118,-0.467766285,0.0385484174,-0.0397336483,0,0,-0.0382489786,0.0399402529,-0.45958814,-0.432574242,-0.453250408,-0.00633774139,-0,-0.429357708,-0.00321653392,-0,1448,1910,1481,1365,11.8500004,10.75,21.6700001,0.319999993,0.469999999,0.540000021,0,0,1,0,0
6.069690,1783675220.011757,103,-2.69141793,-2.69832754,-5.1965313,0,0.0363737345,-0.0696335286,1.01347947,-0.913331866,4.47275639,12.4686069,107.040009,992.012085,0,0.555000007,-3.93046665,2.05063081,0.27766192,3.45633626,-4.20812845,-1.40570545,0.996115088,0.974999964,-2.41000009,-2.5999999,-3,-0.200000003,0,0,3.0999999,3,2.5,0.279452294,0.394451499,-0.399823397,0.047687903,-0.0287336372,0,0,-0.0474154353,0.0291182268,-0.568883955,-0.317082077,-0.5618729,-0.00701108389,-0,-0.313020945,-0.00406112801,-0,1367,1880,1480,1366,11.8500004,10.75,21.6700001,0.319999993,0.469999999,0.540000021,0,0,1,0,0
6.101286,1783675220.043353,104,-3.35247445,-2.52028012,-4.61256218,0,0.109250866,-0.066768989,0.996226788,5.49225903,-5.369452,10.1201096,107.090004,992.012085,0,0.491000026,-3.83433628,6.24441576,-0.385894537,3.61837697,-3.44844174,2.62603879,0.995984197,1.00800002,-2.41000009,-2.5999999,-3,-0.200000003,0,0,3.0999999,3,2.5,-0.125203773,0.512134314,-0.502191484,0.0539777316,-0.00560451671,0,0,-0.054103937,0.00612074835,-0.648989499,-0.070269607,-0.641131699,-0.0078577958,0,-0.0657980442,-0.00447156467,-0,1502,1808,1471,1378,11.8500004,10.75,21.6700001,0.319999993,0.469999999,0.540000021,0,0,1,0,0
6.165068,1783675220.107135,105,-4.0322504,-2.46392512,-4.02698898,0,0.0524581298,-0.0109381378,1.07150853,8.59945202,5.41661263,12.5299225,107.140007,991.964294,0,0.717000008,-0.584864557,2.80266094,-1.08162177,3.68903065,0.496757209,-0.886369705,0.995766044,1.06299996,-2.41000009,-2.5999999,-3,-0.200000003,0,0,3.0999999,3,2.5,-0.0681255087,0.181807086,-0.654944718,0.0491253696,0.0147191649,0,0,-0.0491977856,-0.0145259043,-0.591665149,0.151813775,-0.582993805,-0.00867133401,0,0.15615347,-0.00433969731,-0,1367,1803,1465,1386,11.8500004,10.75,21.6700001,0.319999993,0.469999999,0.540000021,0,0,1,0,0
6.226454,1783675220.168521,106,-4.41504622,-2.7226429,-3.30713272,0,-0.0199865475,0.0181208141,1.10616755,12.6774769,4.30761528,22.3531723,107.190002,991.964294,0,0.362000018,0.938513577,-1.03498483,-1.47200441,3.44456649,2.41051793,-4.47955132,0.995980263,1.00899994,-2.41000009,-2.5999999,-3,-0.200000003,0,0,3.0999999,3,2.5,-0.379020721,-0.0819060728,-0.484285414,0.0381951444,0.0149513548,0,0,-0.0385775752,-0.0150339976,-0.466539949,0.157638699,-0.45714429,-0.009395645,0,0.161615476,-0.00397677813,0,1367,1803,1452,1401,11.8500004,10.75,21.6700001,0.319999993,0.469999999,0.540000021,0,0,1,0,0
6.272171,1783675220.214238,107,-4.35058022,-3.28155756,-2.46333313,0,-0.0138328969,-0.0121199265,1.11549556,11.8181572,2.91654444,20.8268299,107.240005,991.964294,0,0.0860000029,-0.622497618,-0.710427999,-1.40039825,2.87941003,0.777900636,-3.58983803,0.996722758,0.821999967,-2.41000009,-2.5999999,-3,-0.200000003,0,0,3.0999999,3,2.5,-0.459392041,-0.434738636,-0.190583706,0.0158923585,-0.00013985546,0,0,-0.016801836,-0.000775626511,-0.208938107,0.00457445811,-0.199101761,-0.00983634405,0,0.00833798479,-0.00376352691,0,1367,1803,1445,1409,11.8500004,10.75,21.6700001,0.319999993,0.469999999,0.540000021,0,0,1,0,0
6.334819,1783675220.276885,108,-3.94763684,-3.58446169,-1.72254753,0,-0.0244156942,0.0154552907,1.09521651,4.94106483,-2.51946998,11.5022697,107.290009,991.964294,0,0.527999997,0.808483183,-1.27695775,-1.00252998,2.58098364,1.81101322,-3.85794139,0.995789826,1.05700004,-2.41000009,-2.5999999,-3,-0.200000003,0,0,3.0999999,3,2.5,-0.312709838,-0.411956638,-0.0677068383,0.00309572392,-0.0228859857,0,0,-0.00342625822,0.0224505477,-0.050585866,-0.245378628,-0.0406011604,-0.00998470746,0,-0.241343394,-0.00403523073,0,1454,1803,1439,1417,11.8500004,10.75,21.6700001,0.319999993,0.469999999,0.540000021,0,0,1,0,0
6.396019,1783675220.338086,109,-3.20233512,-3.55250001,-1.29801178,0,0.0861644372,0.0781550631,1.15078318,-1.54816568,-0.66634059,0.297804832,107.340004,991.964294,0,0.485000014,3.88525796,4.2722044,-0.266308248,2.58993387,4.15156603,1.68227053,0.995976269,1.00999999,-2.41000009,-2.5999999,-3,-0.200000003,0,0,3.0999999,3,2.5,0.341795981,-0.470462173,-0.324611008,0.00360341067,-0.0442383103,0,0,-0.00325819664,0.0437631421,-0.0486008376,-0.475271761,-0.0386096314,-0.00999120437,-0,-0.470453769,-0.00481799711,0,1416,1872,1438,1417,11.8500004,10.75,21.6700001,0.319999993,0.469999999,0.540000021,0,0,1,0,0
6.472161,1783675220.414227,110,-2.42425513,-3.58096242,-1.16532898,0,0.0250483193,0.0441277251,1.16045582,-6.35798216,-1.23714113,-0.904451847,107.390007,992.008179,0,0.526000023,2.17769146,1.23563862,0.520124853,2.5749886,1.65756655,-1.33934999,0.9949615,1.26600003,-2.41000009,-2.5999999,-3,-0.200000003,0,0,3.0999999,3,2.5,0.0182702597,-0.212684587,-0.298165679,0.0132937375,-0.0621844493,0,0,-0.0132706072,0.061915189,-0.167410091,-0.671678424,-0.157256708,-0.0101533886,-0,-0.66558826,-0.00609015021,0,1440,1926,1438,1418,11.8500004,10.75,21.6700001,0.319999993,0.469999999,0.540000021,0,0,1,0,0
6.503891,1783675220.445957,111,-2.30234599,-3.19002867,-1.10326958,0,0.122254223,-0.0531957783,1.09008384,-7.97167444,1.11439562,-6.82914686,107.440002,992.008179,0,0.353000015,-2.79380107,6.39150906,0.664314151,2.94529343,-3.4581151,3.44621563,0.995972216,1.01100004,-2.41000009,-2.5999999,-3,-0.200000003,0,0,3.0999999,3,2.5,0.18882291,0.373660564,-0.37147668,0.0245312769,-0.0555335395,0,0,-0.0243403763,0.05591131,-0.29887408,-0.608565748,-0.288433462,-0.0104406048,-0,-0.601046562,-0.00751916924,-0,1378,1947,1441,1414,11.8500004,10.75,21.6700001,0.319999993,0.469999999,0.540000021,0,0,1,0,0
6.566981,1783675220.509048,112,-2.86403728,-2.71113348,-1.13765717,0,0.0673824176,-0.149723798,0.988942921,-3.10632515,2.29651833,-5.34701729,107.490005,992.008179,0,0.076000005,-8.6090765,3.85408378,0.109951898,3.43705249,-8.71902847,0.417031288,0.997561932,0.611000001,-2.41000009,-2.5999999,-3,-0.200000003,0,0,3.0999999,3,2.5,0.0376140438,0.838229775,-0.0317192078,0.0360253789,-0.0245990865,0,0,-0.0359487347,0.0262538008,-0.436922759,-0.290736169,-0.425992519,-0.0109302346,-0,-0.282228351,-0.00850783195,-0,1367,1914,1439,1416,11.8500004,10.75,21.6700001,0.319999993,0.469999999,0.540000021,0,0,1,0,0
6.642633,1783675220.584700,113,-4.04015446,-2.73932648,-1.24145699,0,-0.0105991922,-0.119022332,0.949308157,3.57600069,10.5660343,-1.64942122,107.540009,992.008179,0,0.58100003,-7.14633799,-0.634721935,-1.06296897,3.42620015,-6.08336926,-4.06092215,0.995980263,1.00899994,-2.41000009,-2.5999999,-3,-0.200000003,0,0,3.0999999,3,2.5,-0.0884286016,0.939987719,0.286173493,0.027878141,0.0208731964,0,0,-0.0279673655,-0.0199247487,-0.342863858,0.205610439,-0.331413299,-0.0114505617,0,0.214191049,-0.00858061202,-0,1367,1851,1440,1416,11.8500004,10.75,21.6700001,0.319999993,0.469999999,0.540000021,0,0,1,0,0
6.673365,1783675220.615432,114,-5.27367401,-2.94463325,-1.37468338,0,-0.0202370472,0.00254600495,0.969555676,7.37233829,-1.23084188,-8.74783134,107.590004,992.008179,0,0.508000016,0.15045552,-1.1957283,-2.33091664,3.2223289,2.48137212,-4.41805744,0.995980263,1.00899994,-2.41000009,-2.5999999,-3,-0.200000003,0,0,3.0999999,3,2.5,-0.386411428,0.486919552,0.354619294,0.0211191624,0.0647407472,0,0,-0.0215090513,-0.0642494485,-0.266750664,0.683140337,-0.254882276,-0.0118683912,0,0.690681577,-0.00754125929,-0,1424,1806,1446,1409,11.8500004,10.75,21.6700001,0.319999993,0.469999999,0.540000021,0,0,1,0,0
6.736095,1783675220.678162,115,-5.76719189,-3.43241811,-1.59131813,0,0.0230460428,0.0448053256,0.981629848,9.44741726,-1.97374678,4.39727211,107.640007,992.071411,0,0.719000041,2.61338377,1.34350622,-2.83806086,2.72275591,5.45144463,-1.37924969,0.995670795,1.08700001,-2.41000009,-2.5999999,-3,-0.200000003,0,0,3.0999999,3,2.5,-0.0139454305,-0.0794157088,0.445459157,0.00485814549,0.0770961791,0,0,-0.00487330416,-0.0771825016,-0.069801271,0.823884666,-0.0577486567,-0.0120526105,0,0.829711914,-0.00582725555,0,1456,1803,1449,1406,11.8500004,10.75,21.6700001,0.319999993,0.469999999,0.540000021,0,0,1,0,0
6.798569,1783675220.740636,116,-5.46071148,-3.83914495,-1.96823692,0,0.00646540523,-0.00300363451,0.959031701,5.1159544,-14.4672146,13.6837215,107.690002,992.071411,0,0.39200002,-0.179446638,0.386257321,-2.51735902,2.31780696,2.33791232,-1.93154967,0.99598819,1.00699997,-2.41000009,-2.5999999,-3,-0.200000003,0,0,3.0999999,3,2.5,-0.329472303,-0.458641976,0.729028225,0.00622246554,0.0606898479,0,0,-0.00655424409,-0.061151702,-0.0898450986,0.653215706,-0.0776677951,-0.0121773006,0,0.657380819,-0.00416512694,0,1515,1859,1456,1397,11.8500004,10.75,21.6700001,0.319999993,0.469999999,0.540000021,0,0,1,0,0
6.861678,1783675220.803745,117,-4.54252291,-4.07566214,-2.44384384,0,0.170433372,0.0177697726,0.971699774,-6.9560709,-11.6854668,-1.74418926,107.740005,992.071411,0,0.0700000003,1.0476687,9.94669342,-1.59883261,2.04655147,2.6465013,7.90014172,0.9965837,0.856999993,-2.41000009,-2.5999999,-3,-0.200000003,0,0,3.0999999,3,2.5,0.622939467,-0.554124355,0.753738225,0.00411657104,0.035545215,0,0,-0.00289988797,-0.0366793424,-0.0465436131,0.391275585,-0.0343636721,-0.0121799428,-0,0.394302934,-0.0030273532,0,1515,1951,1465,1385,11.8500004,10.75,21.6700001,0.319999993,0.469999999,0.540000021,0,0,1,0,0
6.923011,1783675220.865077,118,-3.58561754,-4.00386524,-2.62697792,0,0.0117502064,0.059331324,1.05560255,-12.8637533,-6.44567013,-9.36628056,107.790009,992.071411,0,0.539000034,3.2169888,0.636744082,-0.649517536,2.15185499,3.86650634,-1.51511097,0.995698571,1.07999992,-2.41000009,-2.5999999,-3,-0.200000003,0,0,3.0999999,3,2.5,0.219429642,-0.228162155,0.519265354,0.0254726559,0.0140106324,0,0,-0.0252356716,-0.0142570473,-0.311483026,0.150758371,-0.299042732,-0.012440294,-0,0.153263256,-0.00250488101,0,1458,1951,1463,1389,11.8500004,10.75,21.6700001,0.319999993,0.469999999,0.540000021,0,0,1,0,0
6.955112,1783675220.897179,119,-3.42775917,-3.35706353,-2.35966492,0,-0.0627620444,-0.0697572827,1.10583735,-11.3290977,11.698287,-1.1738472,107.840004,992.071411,0,0.210000008,-3.60949039,-3.24191976,-0.462376863,2.81649256,-3.14711356,-6.05841255,0.995980263,1.00899994,-2.41000009,-2.5999999,-3,-0.200000003,0,0,3.0999999,3,2.5,0.231767625,0.378837883,0.115271069,0.0435486771,0.0209510513,0,0,-0.043314822,-0.020568803,-0.526261508,0.218962267,-0.51328063,-0.0129808746,-0,0.221114635,-0.00215237541,-0,1367,1951,1440,1415,11.8500004,10.75,21.6700001,0.319999993,0.469999999,0.540000021,0,0,1,0,0
7.018398,1783675220.960464,120,-4.12653255,-2.58432293,-1.75008965,0,-0.0409358628,-0.134632796,0.97562021,-1.66263402,18.8142128,24.5481033,107.890007,992.000244,0,0.524000049,-7.85702944,-2.38012385,-1.13867342,3.59612727,-6.71835613,-5.97625113,0.994771421,1.31400001,-2.41000009,-2.5999999,-3,-0.200000003,0,0,3.0999999,3,2.5,-0.127888501,0.824349761,0.0235090163,0.0534062609,0.0507392623,0,0,-0.053574305,-0.049656067,-0.648643792,0.532444775,-0.634855509,-0.013788281,0,0.533802748,-0.00135800138,-0,1367,1938,1435,1421,11.8500004,10.75,21.6700001,0.319999993,0.469999999,0.540000021,0,0,1,0,0
7.079111,1783675221.021177,121,-5.59508467,-2.26590419,-0.990514755,0,0.0287126638,-0.141863436,0.932192385,3.49843144,23.2735043,21.0014286,107.940002,992.000244,0,0.414000034,-8.65302753,1.74415362,-2.61809421,3.89193225,-6.03493309,-2.14777851,0.995980263,1.00899994,-2.41000009,-2.5999999,-3,-0.200000003,0,0,3.0999999,3,2.5,-0.459766865,0.976870358,0.00540628843,0.0332524404,0.0993883759,0,0,-0.0337163433,-0.0984027162,-0.414038807,1.05821037,-0.399538696,-0.014500102,0,1.05782914,0.000381278514,-0,1367,1875,1438,1418,11.8500004,10.75,21.6700001,0.319999993,0.469999999,0.540000021,0,0,1,0,0
7.141754,1783675221.083821,122,-6.89183903,-1.706429,-0.420606613,0,-0.0280927531,-0.158861339,0.918925166,8.9766655,28.0722008,14.1386108,107.990005,992.000244,0,0.364000022,-9.80819798,-1.7254833,-3.92537427,4.4572072,-5.88282394,-6.18269062,0.997665524,0.584999979,-2.41000009,-2.5999999,-3,-0.200000003,0,0,3.0999999,3,2.5,-0.494218856,0.450449228,-0.0205985531,0.0133111821,0.140604123,0,0,-0.0142873432,-0.139730543,-0.184184983,1.50535965,-0.169305027,-0.0148799624,0,1.50210333,0.00325630396,-0,1367,1810,1426,1429,11.8500004,10.75,21.6700001,0.319999993,0.469999999,0.540000021,0,0,1,0,0
7.202913,1783675221.144979,123,-7.51720953,-2.19666076,-0.229097366,0,-0.220106781,-0.0554530211,0.977849245,12.3281794,23.3582687,19.0105476,108.040009,992.000244,0,0.139000013,-3.24571991,-12.6657505,-4.56978989,4.01947975,1.32406998,-16.6852303,0.99598819,1.00699997,-2.41000009,-2.5999999,-3,-0.200000003,0,0,3.0999999,3,2.5,-1.0881201,-0.100371115,-0.17348066,-0.0285206027,0.149658203,0,0,0.0264377184,-0.149850354,0.298478663,1.61761642,0.31328696,-0.0148082981,0,1.61089134,0.00672504585,0,1367,1818,1443,1412,11.8500004,10.75,21.6700001,0.319999993,0.469999999,0.540000021,0,0,1,0,0
7.266809,1783675221.208875,124,-7.14872646,-2.89372563,-0.367692947,0,-0.117056943,-0.00805684924,0.986383319,6.21355009,18.2732239,9.35637665,108.090004,992.000244,0,0.243000016,-0.46798563,-6.7675786,-4.21104097,3.29592967,3.74305534,-10.063508,0.995980263,1.00899994,-2.41000009,-2.5999999,-3,-0.200000003,0,0,3.0999999,3,2.5,-0.794427812,-0.759561837,-0.148404703,-0.0768406913,0.128730416,0,0,0.0760391131,-0.129496813,0.887116253,1.40215623,0.901063502,-0.0139472522,0,1.3920908,0.0100654196,0,1367,1859,1440,1415,11.8500004,10.75,21.6700001,0.319999993,0.469999999,0.540000021,0,0,1,0,0
7.328652,1783675221.270719,125,-6.16105366,-4.1108799,-0.725593567,0,-0.125185817,0.03895564,1.01368988,-0.116915777,4.77352142,-11.1939573,108.140007,992.217651,0,0.326000005,2.20076776,-7.03496695,-3.22814107,2.07156754,5.42890882,-9.10653496,0.996349335,0.916000009,-2.41000009,-2.5999999,-3,-0.200000003,0,0,3.0999999,3,2.5,-0.900206208,-0.895471871,-0.249941781,-0.118137807,0.0868118331,0,0,0.116331302,-0.0886248648,1.36612189,0.965332329,1.37852597,-0.0124041354,0,0.952717304,0.0126150427,0,1399,1916,1441,1415,11.8500004,10.75,21.6700001,0.319999993,0.469999999,0.540000021,0,0,1,0,0
7.359730,1783675221.301797,126,-5.26867676,-4.31986427,-1.18556595,0,-0.0995716304,-0.155164212,0.990652263,-4.48846292,5.44895315,-16.2533855,108.190002,992.217651,0,0.457000017,-8.90181828,-5.67090988,-2.28936505,1.85960913,-6.61245346,-7.53051901,0.995980263,1.00899994,-2.41000009,-2.5999999,-3,-0.200000003,0,0,3.0999999,3,2.5,0.0635728016,-0.221116006,-0.0704568997,-0.127793595,0.0510462709,0,0,0.127857745,-0.0512693785,1.50475192,0.565329015,1.51511431,-0.0103623634,-0,0.551145792,0.0141832279,0,1367,1951,1452,1402,11.8500004,10.75,21.6700001,0.319999993,0.469999999,0.540000021,0,0,1,0,0
7.422144,1783675221.364210,127,-5.12117195,-4.78162384,-1.67119789,0,-0.00515217334,-0.169966355,1.07393992,-5.83005333,4.32852745,-16.9275017,108.240005,992.217651,0,0.0930000022,-8.99328518,-0.271492511,-2.14086795,1.37420094,-6.85241699,-1.64569342,0.995976269,1.00999999,-2.41000009,-2.5999999,-3,-0.200000003,0,0,3.0999999,3,2.5,0.0909227431,0.312902749,-0.193389252,-0.124900766,0.0522358492,0,0,0.124992594,-0.0519198179,1.47281611,0.573474169,1.48116231,-0.0083462242,-0,0.558138013,0.0153361373,-0,1367,1951,1461,1391,11.8500004,10.75,21.6700001,0.319999993,0.469999999,0.540000021,0,0,1,0,0
7.483752,1783675221.425819,128,-5.84445238,-4.71995354,-2.08877563,0,-0.0550773107,-0.149809539,1.07810092,-2.84920716,9.1611042,-6.83336449,108.290009,992.217651,0,0.546000004,-7.91098452,-2.89676166,-2.8689332,1.44888937,-5.04205132,-4.34565115,0.995480537,1.13499999,-2.41000009,-2.5999999,-3,-0.200000003,0,0,3.0999999,3,2.5,0.469943553,0.870133638,-0.156777307,-0.111359343,0.0852357596,0,0,0.11189273,-0.0842481554,1.31950629,0.922547936,1.32592893,-0.00642264262,-0,0.905667663,0.0168802924,-0,1414,1951,1451,1402,11.8500004,10.75,21.6700001,0.319999993,0.469999999,0.540000021,0,0,1,0,0
7.546693,1783675221.488760,129,-7.08486223,-3.62833381,-2.41156578,0,-0.0372119769,-0.137897789,0.981897473,5.08705091,11.3387976,-7.52515411,108.340004,992.217651,0,0.25,-7.99434042,-2.14928627,-4.11655855,2.53969908,-3.87778187,-4.68898535,0.995984197,1.00800002,-2.41000009,-2.5999999,-3,-0.200000003,0,0,3.0999999,3,2.5,0.96512717,0.844769061,-0.0419760421,-0.0695778802,0.13173379,0,0,0.0705507249,-0.130882263,0.831098557,1.42641079,0.836026132,-0.00492758118,-0,1.40698433,0.0194264334,-0,1367,1872,1455,1398,11.8500004,10.75,21.6700001,0.319999993,0.469999999,0.540000021,0,0,1,0,0
7.607987,1783675221.550053,130,-8.33728123,-3.28111839,-2.83641624,0,0.124333709,-0.0645736232,0.918443203,9.84400654,4.11639833,-13.0509186,108.390007,992.03186,0,0.536000013,-4.02171612,7.69075823,-5.39184904,2.8422544,1.37013292,4.84850407,0.994672596,1.33899999,-2.41000009,-2.5999999,-3,-0.200000003,0,0,3.0999999,3,2.5,0.283044785,0.382975668,-0.0396419913,-0.0420196764,0.170161799,0,0,0.0425560884,-0.169357732,0.500203371,1.84360099,0.504289687,-0.00408628583,-0,1.82059562,0.0230053961,-0,1515,1819,1466,1385,11.8500004,10.75,21.6700001,0.319999993,0.469999999,0.540000021,0,0,1,0,0
7.670614,1783675221.612681,131,-8.7397728,-2.91537762,-3.29797173,0,0.195475563,0.120804891,0.960301697,13.9966288,-0.383592129,-3.92074585,108.440002,992.03186,0,0.775000036,7.17008066,11.4181252,-5.83938789,3.2007606,13.0094681,8.21736431,0.995976269,1.00999999,-2.41000009,-2.5999999,-3,-0.200000003,0,0,3.0999999,3,2.5,0.363157183,-0.339591265,-0.0904907733,-0.0291699599,0.174758047,0,0,0.0295367483,-0.175101027,0.346511006,1.90946913,0.350010484,-0.00349948788,-0,1.88233602,0.0271331444,0,1515,1803,1463,1388,11.8500004,10.75,21.6700001,0.319999993,0.469999999,0.540000021,0,0,1,0,0
7.748413,1783675221.690479,132,-8.16381836,-2.43640733,-3.74279404,0,0.0796840638,0.0596460328,0.950733781,11.485775,0.279630423,3.5828104,108.491005,992.03186,0,0.0890000015,3.58985138,4.78158998,-5.25248671,3.70776796,8.84233856,1.07382202,0.995318055,1.176,-2.41000009,-2.5999999,-3,-0.200000003,0,0,3.0999999,3,2.5,0.191280976,-0.944452643,-0.0398331173,-0.00756948302,0.13934049,0,0,0.00779442955,-0.140451163,0.0891416594,1.540887,0.0923639908,-0.00322233257,-0,1.50985003,0.0310369581,0,1487,1803,1477,1370,11.8500004,10.75,21.6700001,0.319999993,0.469999999,0.540000021,0,0,1,0,0
7.778972,1783675221.721039,133,-6.83875656,-2.5358665,-4.22811127,0,0.166365147,0.0462040901,0.971760213,2.04188991,-7.14533186,-17.888649,108.541008,992.03186,0,0.0720000044,2.72218084,9.70409012,-3.91552377,3.58614707,6.63770485,6.11794281,0.995555818,1.11600006,-2.41000009,-2.5999999,-3,-0.200000003,0,0,3.0999999,3,2.5,-0.103129461,-1.06670928,-0.15260838,-0.00294244452,0.0836652517,0,0,0.00282735215,-0.084855698,0.0303456448,0.945868373,0.0335041247,-0.00315848016,0,0.912198782,0.0336695984,0,1465,1884,1487,1356,11.8500004,10.75,21.6700001,0.319999993,0.469999999,0.540000021,0,0,1,0,0
7.823688,1783675221.765754,134,-5.51646709,-2.76875758,-4.49926186,0,0.0421024896,-0.0339866057,1.06297994,-4.23262548,-6.93764591,-4.38101387,108.591003,992.03186,0,0.23300001,-1.83129132,2.26702738,-2.56668568,3.3849299,0.735394359,-1.11790252,0.99598819,1.00699997,-2.41000009,-2.5999999,-3,-0.200000003,0,0,3.0999999,3,2.5,-0.0392004736,-0.479726315,-0.296959877,-0.0050377585,0.0364799611,0,0,0.0050377585,-0.0364799611,0.0566153526,0.427194357,0.0596974418,-0.00308208959,0,0.392159581,0.0350347608,0,1515,1951,1482,1363,11.8500004,10.75,21.6700001,0.319999993,0.469999999,0.540000021,0,0,1,0,0
7.886594,1783675221.828661,135,-5.04381752,-2.37874794,-4.61157417,0,0.0419145226,-0.109581336,0.998905957,-7.43997955,3.48743153,12.9504175,108.641006,991.996033,0,0.0900000036,-6.26039171,2.38843417,-2.06960559,3.77757502,-4.19078636,-1.38914084,0.994874418,1.28799999,-2.41000009,-2.5999999,-3,-0.200000003,0,0,3.0999999,3,2.5,0.706155539,0.271179765,-0.150045082,0.012185243,0.0277346969,0,0,-0.0112757143,-0.0273854174,-0.136718273,0.330102503,-0.133617222,-0.00310105714,-0,0.294393241,0.0357092507,-0,1515,1951,1475,1372,11.8500004,10.75,21.6700001,0.319999993,0.469999999,0.540000021,0,0,1,0,0
7.963338,1783675221.905405,136,-5.47168636,-2.40407872,-4.81166077,0,0.25628975,-0.0453351587,0.959158957,-4.52256489,-17.2621784,-16.8623123,108.691002,991.996033,0,0.431000024,-2.70610166,14.9441452,-2.51820064,3.70001483,-0.18790102,11.2441301,0.99598819,1.00699997,-2.41000009,-2.5999999,-3,-0.200000003,0,0,3.0999999,3,2.5,0.495997518,0.820013225,-0.139792338,0.0321876183,0.0552311316,0,0,-0.0321876183,-0.0552311316,-0.384891361,0.630342066,-0.381423295,-0.00346806785,-0,0.593734682,0.0366073623,-0,1515,1951,1494,1345,11.8500004,10.75,21.6700001,0.319999993,0.469999999,0.540000021,0,0,1,0,0
7.994094,1783675221.936161,137,-6.95124435,-2.23701072,-5.03017616,0,0.000852197409,-0.214554504,1.02062225,2.84904575,-12.5951023,-1.34348679,108.741005,991.996033,0,0.795000017,-11.8718128,0.0468174256,-3.96683025,3.9277463,-7.90498257,-3.88092875,0.995992124,1.00599992,-2.41000009,-2.5999999,-3,-0.200000003,0,0,3.0999999,3,2.5,0.296820283,1.19697988,-0.030219797,0.0574793629,0.112855636,0,0,-0.0571807623,-0.111651473,-0.681796849,1.23883343,-0.677592039,-0.00420480315,-0,1.20025337,0.0385801159,-0,1515,1896,1489,1353,11.8500004,10.75,21.6700001,0.319999993,0.469999999,0.540000021,0,0,1,0,0
8.088564,1783675222.030631,138,-8.60564995,-1.89789438,-5.34791565,0,-0.0358272977,-0.174014807,1.07103634,11.1353493,-8.94636345,-8.09872532,108.792007,991.996033,0,0.646000028,-9.22839546,-1.89111054,-5.63848782,4.27609921,-3.58990765,-6.16720963,0.995980263,1.00899994,-2.41000009,-2.5999999,-3,-0.200000003,0,0,3.0999999,3,2.5,0.456808507,0.96216917,-0.083627753,0.0813392475,0.168383092,0,0,-0.0808783248,-0.167412266,-0.963694096,1.84158719,-0.958408177,-0.00528591406,-0,1.7996819,0.0419052429,-0,1483,1803,1493,1346,11.8500004,10.75,21.6700001,0.319999993,0.469999999,0.540000021,0,0,1,0,0
8.119779,1783675222.061845,139,-9.54377556,-1.72704744,-5.616642,0,0.252363503,-0.0408411697,0.815011322,15.902194,-13.4850769,-0.753496826,108.842003,991.996033,0,0.259000003,-2.86875868,17.1845436,-6.60605288,4.3706975,3.7372942,12.8138466,0.995984197,1.00800002,-2.41000009,-2.5999999,-3,-0.200000003,0,0,3.0999999,3,2.5,0.425794512,0.128444761,-0.00759916008,0.099716343,0.194062918,0,0,-0.0992871448,-0.193933442,-1.18331289,2.13101888,-1.17655265,-0.00676029222,-0,2.08478451,0.0462343991,-0,1515,1803,1492,1348,11.8500004,10.75,21.6700001,0.319999993,0.469999999,0.540000021,0,0,1,0,0
8.209125,1783675222.151191,140,-9.58824348,-1.59719801,-5.79361725,0,-0.0497861095,-0.00892454386,1.07456791,13.9227209,-10.0779533,-6.49754715,108.892006,992.071411,0,0.757000029,-0.475844234,-2.65259862,-6.66278696,4.58390665,6.18694258,-7.23650551,0.995591521,1.10699999,-2.41000009,-2.5999999,-3,-0.200000003,0,0,3.0999999,3,2.5,0.140547544,-0.45138061,0.00723155215,0.115454681,0.183658779,0,0,-0.115299098,-0.184158459,-1.37477505,2.03042936,-1.36629438,-0.00848071091,-0,1.97970343,0.0507260561,0,1515,1803,1484,1360,11.8500004,10.75,21.6700001,0.319999993,0.469999999,0.540000021,0,0,1,0,0
8.246125,1783675222.188192,141,-8.60046768,-1.36707592,-5.96564674,0,0.0689562038,0.0357354395,1.00530303,3.29334164,-17.5469246,-15.1484337,108.942009,992.071411,0,0.450000018,2.03583193,3.92144299,-5.67957592,4.78569317,7.71540785,-0.864250183,0.995873153,1.03600001,-2.41000009,-2.5999999,-3,-0.200000003,0,0,3.0999999,3,2.5,0.272865862,-0.978684187,0.0761862472,0.132617623,0.14510417,0,0,-0.132334933,-0.14611809,-1.57862723,1.6254158,-1.568169,-0.0104582328,-0,1.57076943,0.0546463877,0,1515,1899,1496,1341,11.8500004,10.75,21.6700001,0.319999993,0.469999999,0.540000021,0,0,1,0,0
8.309340,1783675222.251406,142,-7.05892801,-1.45751095,-6.10207176,0,0.251148283,0.0826825127,0.862449884,-6.22171116,-24.6716671,-2.43610144,108.992004,992.071411,0,0.388000011,5.4761734,16.165514,-4.14586782,4.64418983,9.6220417,11.5213242,0.995877028,1.03499997,-2.41000009,-2.5999999,-3,-0.200000003,0,0,3.0999999,3,2.5,0.24887833,-0.966089427,-0.00042906031,0.145949572,0.0958547816,0,0,-0.145691976,-0.0968546867,-1.73914123,1.09867024,-1.72644997,-0.0126912314,-0,1.04118788,0.0574823506,0,1515,1951,1495,1342,11.8500004,10.75,21.6700001,0.319999993,0.469999999,0.540000021,0,0,1,0,0
8.339438,1783675222.281505,143,-6.09978008,-1.8039217,-6.1532135,0,-0.075266473,0.0432236195,1.10508966,-11.9737787,-20.4943657,0.227067947,109.042007,992.071411,0,0.572000027,2.23988104,-3.89336872,-3.17032003,4.38087225,5.41020107,-8.27424049,0.995698571,1.07999992,-2.41000009,-2.5999999,-3,-0.200000003,0,0,3.0999999,3,2.5,0.0299491584,-0.259103596,-0.155176774,0.153987944,0.0707977042,0,0,-0.153955594,-0.0710775331,-1.83946609,0.823462486,-1.82437384,-0.0150922611,-0,0.764083505,0.0593790039,0,1515,1951,1486,1358,11.8500004,10.75,21.6700001,0.319999993,0.469999999,0.540000021,0,0,1,0,0
8.400609,1783675222.342675,144,-5.55558014,-2.33479929,-5.91904449,0,0.233790904,-0.024479866,0.924729645,-12.7133589,-21.4588585,-2.14033031,109.092003,992.071411,0,0.256000012,-1.51640582,14.1834879,-2.60723305,3.77255416,1.09082723,10.4109335,0.995980263,1.00899994,-2.41000009,-2.5999999,-3,-0.200000003,0,0,3.0999999,3,2.5,0.00600107759,0.224642336,-0.148586988,0.149906978,0.0720455498,0,0,-0.149900928,-0.0718188882,-1.79385638,0.83306241,-1.77632606,-0.0175302625,0,0.772053063,0.0610093586,-0,1515,1951,1491,1350,11.8500004,10.75,21.6700001,0.319999993,0.469999999,0.540000021,0,0,1,0,0
8.464285,1783675222.406352,145,-5.60001755,-2.72698975,-5.4066124,0,0.00121624023,-0.109583251,1.15071893,-7.88963366,-14.6802788,12.5097923,109.142006,992.02002,0,0.566000044,-5.43988657,0.0602854043,-2.6327641,3.43969536,-2.80712247,-3.37941003,0.994826853,1.29999995,-2.41000009,-2.5999999,-3,-0.200000003,0,0,3.0999999,3,2.5,-0.258600086,0.504805863,-0.280191958,0.142870024,0.0914258137,0,0,-0.143389329,-0.0904355049,-1.71904349,1.03509116,-1.69916356,-0.0198799744,0,0.972181678,0.0629095063,-0,1515,1951,1477,1370,11.8500004,10.75,21.6700001,0.319999993,0.469999999,0.540000021,0,0,1,0,0
8.525851,1783675222.467918,146,-6.13291073,-2.76836157,-4.64396667,0,0.148749202,-0.111403957,0.85820508,-2.19329429,-10.8188868,18.6948624,109.192009,992.02002,0,0.459000021,-7.39622927,9.75291538,-3.16316319,3.35512376,-4.23306608,6.39779186,0.995980263,1.00899994,-2.41000009,-2.5999999,-3,-0.200000003,0,0,3.0999999,3,2.5,-0.119051598,0.524086177,-0.0157673135,0.133461788,0.116887815,0,0,-0.133581907,-0.11635901,-1.60504127,1.31621039,-1.58294559,-0.0220957194,0,1.25085938,0.0653509572,-0,1515,1951,1473,1375,11.8500004,10.75,21.6700001,0.319999993,0.469999999,0.540000021,0,0,1,0,0
8.594594,1783675222.536660,147,-6.90486431,-2.5784483,-3.86852074,0,0.179946288,-0.11723955,1.01099026,5.25566816,-7.77737665,14.5845461,109.242004,992.02002,0,0.25,-6.61476231,10.026576,-3.9413867,3.54469919,-2.67337561,6.48187685,0.995980263,1.00899994,-2.41000009,-2.5999999,-3,-0.200000003,0,0,3.0999999,3,2.5,-0.15770781,0.406211913,-0.312592864,0.123898305,0.141739056,0,0,-0.124057434,-0.141329184,-1.49423516,1.58769596,-1.47008061,-0.0241545886,0,1.51928878,0.0684071928,-0,1502,1876,1462,1389,11.8500004,10.75,21.6700001,0.319999993,0.469999999,0.540000021,0,0,1,0,0
8.636098,1783675222.578165,148,-7.76626444,-2.31029797,-3.2292366,0,0.170640528,-0.115160935,1.0274502,10.9967413,-7.40455532,5.79293633,109.292007,992.02002,0,0.161000013,-6.39525986,9.37206554,-4.80716133,3.81661749,-1.58809853,5.55544806,0.99598819,1.00699997,-2.41000009,-2.5999999,-3,-0.200000003,0,0,3.0999999,3,2.5,-0.391271621,0.281115681,-0.548692465,0.109645277,0.158003539,0,0,-0.110484518,-0.157435238,-1.3352735,1.76435864,-1.30924153,-0.0260319132,0,1.69242883,0.0719297975,-0,1367,1803,1456,1398,11.8500004,10.75,21.6700001,0.319999993,0.469999999,0.540000021,0,0,1,0,0
8.712178,1783675222.654245,149,-8.176548,-2.2168963,-2.8169632,0,-0.0592709854,-0.0941210389,1.08230793,12.2064524,4.06877327,16.2128448,109.342003,992.02002,0,0.246000007,-4.97012472,-3.12282443,-5.22483873,3.96075273,0.254714012,-7.08357716,0.995984197,1.00800002,-2.41000009,-2.5999999,-3,-0.200000003,0,0,3.0999999,3,2.5,-0.720887184,-0.124434896,-0.400911033,0.0850312859,0.159635559,0,0,-0.085757941,-0.159760982,-1.0438534,1.79314256,-1.01623166,-0.0276217945,0,1.71743059,0.0757119805,0,1367,1819,1454,1400,11.8500004,10.75,21.6700001,0.319999993,0.469999999,0.540000021,0,0,1,0,0
8.743184,1783675222.685251,150,-7.90736055,-2.46843982,-2.50642395,0,0.0380289927,0.0287842844,1.02522838,8.80912209,6.91473961,13.8476772,109.392006,991.964294,0,0.380000025,1.60821223,2.12347341,-4.97859621,3.68645024,6.5868082,-1.56297684,0.996361315,0.913000047,-2.41000009,-2.5999999,-3,-0.200000003,0,0,3.0999999,3,2.5,-0.648945808,-0.635395765,-0.28011322,0.046022024,0.137346581,0,0,-0.0473360308,-0.138601869,-0.589608371,1.56922626,-0.560931981,-0.0286763664,0,1.48997009,0.0792562142,0,1367,1831,1458,1395,11.8500004,10.75,21.6700001,0.319999993,0.469999999,0.540000021,0,0,1,0,0
8.809716,1783675222.751783,151,-7.16176271,-2.97100091,-2.33687973,0,0.143392161,0.0281037204,0.979886353,-0.805434823,-1.96883154,-6.70570087,109.442009,991.964294,0,0.491000026,1.64282644,8.32194233,-4.23257875,3.15750337,5.87540531,5.1644392,0.995992124,1.00599992,-2.41000009,-2.5999999,-3,-0.200000003,0,0,3.0999999,3,2.5,-0.77158463,-0.641499043,-0.274837136,0.00569837308,0.104052119,0,0,-0.00647458714,-0.104697466,-0.105829403,1.20759714,-0.0767238587,-0.0291055404,0,1.12549782,0.0820993111,0,1506,1924,1455,1399,11.8500004,10.75,21.6700001,0.319999993,0.469999999,0.540000021,0,0,1,0,0
8.884737,1783675222.826804,152,-6.09974003,-3.47749782,-2.22414207,0,0.038351506,-0.116191313,0.932698667,-6.01150465,0.621337533,-6.34775352,109.492004,991.964294,0,0.119000003,-7.1010623,2.33657026,-3.13100243,2.67306161,-3.97005987,-0.336491346,0.995968342,1.01199996,-2.41000009,-2.5999999,-3,-0.200000003,0,0,3.0999999,3,2.5,-0.612588942,-0.385355622,-0.366119325,-0.0333003141,0.0731468722,0,0,0.0326803736,-0.0735368505,0.358402193,0.874702632,0.387262434,-0.0288602524,0,0.790521145,0.0841815025,0,1469,1951,1450,1404,11.8500004,10.75,21.6700001,0.319999993,0.469999999,0.540000021,0,0,1,0,0
8.916245,1783675222.858311,153,-5.75349331,-4.27245426,-1.97663879,0,-0.0594859868,0.021167621,1.04627907,-6.68826723,-1.94816256,-0.0842227936,109.542007,991.964294,0,0.593000054,1.15901196,-3.25337267,-2.81815314,1.89928043,3.97716522,-5.15265322,0.995627165,1.09799993,-2.41000009,-2.5999999,-3,-0.200000003,0,0,3.0999999,3,2.5,-0.97232759,0.199609131,-0.31005311,-0.0711484328,0.0678614378,0,0,0.0700808167,-0.0676422641,0.802412927,0.812954843,0.830457687,-0.0280447844,0,0.727154315,0.0858005285,-0,1515,1951,1432,1424,11.8500004,10.75,21.6700001,0.319999993,0.469999999,0.540000021,0,0,1,0,0
9.007759,1783675222.949825,154,-6.40576839,-4.92455435,-1.56285286,0,-0.05193137,-0.138889089,1.12537503,-8.51709843,5.45291424,20.3170204,109.592003,991.964294,0,0.26000002,-7.0356288,-2.62222052,-3.43857718,1.24017441,-3.59705162,-3.86239481,0.995980263,1.00899994,-2.41000009,-2.5999999,-3,-0.200000003,0,0,3.0999999,3,2.5,-0.771089613,1.07770526,-0.357911259,-0.114698738,0.102264442,0,0,0.113920711,-0.101177037,1.323403,1.17535126,1.34996045,-0.026557425,0,1.08765316,0.0876980722,-0,1398,1951,1432,1424,11.8500004,10.75,21.6700001,0.319999993,0.469999999,0.540000021,0,0,1,0,0
9.039274,1783675222.981341,155,-7.27013874,-4.81704807,-0.931108475,0,-0.176674694,-0.266634166,1.09978402,-2.73298597,20.1728668,12.9552174,109.642006,992.03186,0,0.555000007,-13.6279716,-8.87350655,-4.26891756,1.385306,-9.35905457,-10.2588129,0.994818985,1.30200005,-2.41000009,-2.5999999,-3,-0.200000003,0,0,3.0999999,3,2.5,-0.433754921,0.947794616,-0.186155111,-0.140786529,0.152419552,0,0,0.140221775,-0.151185527,1.63713694,1.71594501,1.66162813,-0.0244911611,0,1.62524438,0.0907005668,-0,1367,1951,1435,1421,11.8500004,10.75,21.6700001,0.319999993,0.469999999,0.540000021,0,0,1,0,0
9.101154,1783675223.043220,156,-8.53161907,-4.33341646,-0.363382339,0,-0.19424279,-0.292285115,1.14007843,4.74721956,26.5032978,10.7260866,109.692009,992.03186,0,0.460000008,-14.3793821,-9.37157249,-5.54340363,1.86089373,-8.83597851,-11.2324657,0.995984197,1.00800002,-2.41000009,-2.5999999,-3,-0.200000003,0,0,3.0999999,3,2.5,-0.568904221,0.943383098,-0.138366014,-0.160219118,0.197451711,0,0,0.159645662,-0.196500778,1.86971259,2.20719075,1.89180112,-0.0220885333,0,2.11238337,0.0948074386,-0,1367,1926,1429,1427,11.8500004,10.75,21.6700001,0.319999993,0.469999999,0.540000021,0,0,1,0,0
9.163013,1783675223.105080,157,-9.91616726,-3.71893501,-0.0780658722,0,-0.0248949528,-0.260739833,1.09487033,8.34945297,29.5992374,7.45662785,109.742004,992.03186,0,0.0980000049,-13.3952923,-1.26713169,-6.93747711,2.44519043,-6.45781517,-3.71232224,0.995980263,1.00899994,-2.41000009,-2.5999999,-3,-0.200000003,0,0,3.0999999,3,2.5,-0.470160484,0.791496277,-0.175862625,-0.182927206,0.239616871,0,0,0.182452813,-0.238818258,2.14271903,2.66725063,2.16206598,-0.0193470027,0,2.56729627,0.0999543071,-0,1367,1886,1430,1426,11.8500004,10.75,21.6700001,0.319999993,0.469999999,0.540000021,0,0,1,0,0
9.224323,1783675223.166390,158,-10.7390995,-2.99553609,0.038192749,0,-0.0496958941,-0.187422737,1.00727952,11.9497213,36.3187141,0.391042709,109.792007,992.03186,0,0.704000056,-10.5403881,-2.77691245,-7.7752533,3.17760229,-2.76513481,-5.9545145,0.995980263,1.00899994,-2.41000009,-2.5999999,-3,-0.200000003,0,0,3.0999999,3,2.5,-0.473587751,0.221187085,-0.300489664,-0.204460874,0.261557013,0,0,0.203983024,-0.261333823,2.40095115,2.91523695,2.4171989,-0.016247822,0,2.80933857,0.105898388,-0,1367,1839,1431,1424,11.8500004,10.75,21.6700001,0.319999993,0.469999999,0.540000021,0,0,1,0,0
9.303943,1783675223.246010,159,-11.1380196,-2.16268587,0.158203125,0,-0.0262278169,-0.0924749225,0.998675704,11.602232,44.0453453,-1.58322155,109.842003,992.03186,0,0.297000021,-5.29036283,-1.49798477,-8.19698334,4.00867414,2.9066205,-5.50665903,0.995976269,1.00999999,-2.41000009,-2.5999999,-3,-0.200000003,0,0,3.0999999,3,2.5,-0.62791431,-0.23337473,-0.259995908,-0.228737444,0.260543674,0,0,0.22810325,-0.260779381,2.69022346,2.91545773,2.70302367,-0.0128001319,0,2.80337834,0.112079471,0,1367,1849,1427,1428,11.8500004,10.75,21.6700001,0.319999993,0.469999999,0.540000021,0,0,1,0,0
9.335736,1783675223.277802,160,-10.8797474,-1.20655203,0.195611954,0,0.0453576669,-0.0379643962,1.0012579,6.87699413,56.5399857,-7.49056244,109.892006,992.067444,0,0.0780000016,-2.17142677,2.59190488,-7.94757557,4.95104742,5.7761488,-2.35914254,0.996440709,0.893000007,-2.41000009,-2.5999999,-3,-0.200000003,0,0,3.0999999,3,2.5,-0.46146062,-0.580952227,-0.20606935,-0.2573677,0.240127951,0,0,0.256338984,-0.241280273,3.02871323,2.71176553,3.03761697,-0.00890362263,0,2.59376287,0.118002579,0,1367,1891,1426,1429,11.8500004,10.75,21.6700001,0.319999993,0.469999999,0.540000021,0,0,1,0,0
9.398622,1783675223.340688,161,-8.9651432,-0.221829891,-3.00368881,0,0.164708853,-0.0707689077,0.882407546,-0.139957905,-17.5184879,-9.5494976,110.345009,989.27356,0,0.471000016,-4.58529615,10.5399904,-6.01816511,5.90877485,1.43286896,4.63121557,0.995984197,1.00800002,-2.41000009,-2.5999999,-3,-0.200000003,0,0,3.0999999,3,2.5,0.619688094,0.0943826288,-0.151972696,-0.138270155,0.232691258,0,0,0.138270155,-0.232691258,1.66423774,2.6636045,1.63850141,0.0257363115,-0,2.50143099,0.162173465,-0,1515,1951,1470,1379,11.8500004,10.75,21.6700001,0.319999993,0.469999999,0.540000021,0,0,1,0,0
9.461640,1783675223.403707,162,-9.30654335,-0.633207798,-3.41615677,0,0.340539485,-0.165586784,0.797225595,-2.02281904,-23.0532227,-4.66697168,110.395004,994.838013,0,0.0920000076,-11.7337151,22.6961269,-6.3307004,5.44219017,-5.40301466,17.2539368,0.995722413,1.074,-2.41000009,-2.5999999,-3,-0.200000003,0,0,3.0999999,3,2.5,1.29043663,0.107761592,-0.172768623,-0.0968177393,0.241488665,0,0,0.0982036665,-0.241372928,1.19137812,2.76251245,1.16371346,0.0276646446,-0,2.59475899,0.167753562,-0,1515,1951,1476,1371,11.8500004,10.75,21.6700001,0.319999993,0.469999999,0.540000021,0,0,1,0,0
9.493157,1783675223.435223,163,-9.43777466,-1.19305468,-3.76733398,0,0.290100217,-0.13968204,0.989117563,0.39926368,-33.8902893,-5.76823187,110.445007,994.838013,0,0.311000019,-8.03809071,16.1938496,-6.47876835,4.910748,-1.55932236,11.283102,0.995976269,1.00999999,-2.41000009,-2.5999999,-3,-0.200000003,0,0,3.0999999,3,2.5,1.07004535,0.00806383602,-0.360372722,-0.0441876203,0.24258095,0,0,0.045268368,-0.242572799,0.565211356,2.7811079,0.53643018,0.0287811495,-0,2.60765767,0.173450112,0,1515,1951,1479,1367,11.8500004,10.75,21.6700001,0.319999993,0.469999999,0.540000021,0,0,1,0,0
9.555781,1783675223.497848,164,-9.62199211,-1.47111893,-3.94025803,0,0.143489391,-0.108884811,1.17170048,0.840156794,-36.2038498,-6.83108616,110.496002,994.838013,0,0.123000003,-5.30918455,6.95216274,-6.67474937,4.66890574,1.36556482,2.28325701,0.995980263,1.00899994,-2.41000009,-2.5999999,-3,-0.200000003,0,0,3.0999999,3,2.5,1.05116832,0.0392851904,-0.513021171,0.0137508754,0.243591592,0,0,-0.0126902461,-0.243551955,-0.121355578,2.79734445,-0.150379419,0.0290238429,-0,2.61818361,0.179160804,-0,1515,1951,1470,1380,11.8500004,10.75,21.6700001,0.319999993,0.469999999,0.540000021,0,0,1,0,0
9.617800,1783675223.559867,165,-9.88795567,-1.99452448,-4.01195908,0,0.152537897,-0.0975073501,1.00034678,-4.64209175,-34.0462418,-4.31424332,110.546005,994.838013,0,0.585000038,-5.56723547,8.62968349,-6.94135809,4.13461208,1.37412262,4.49507141,0.99553597,1.12100005,-2.41000009,-2.5999999,-3,-0.200000003,0,0,3.0999999,3,2.5,0.731516898,0.182014391,-0.350104749,0.0585477166,0.250125319,0,0,-0.0577276871,-0.249921277,-0.655651033,2.87159491,-0.684073091,0.0284220725,-0,2.68665361,0.184941351,-0,1515,1951,1478,1369,11.8500004,10.75,21.6700001,0.319999993,0.469999999,0.540000021,0,0,1,0,0
9.679229,1783675223.621296,166,-9.79972267,-2.49820328,-4.27270889,0,0.324216425,-0.118545562,0.819308102,-3.26857853,-35.5299835,-10.5117722,110.596008,994.838013,0,0.463000029,-8.23298168,21.3873711,-6.84139156,3.57934499,-1.39159012,17.8080254,0.995976269,1.00999999,-2.41000009,-2.5999999,-3,-0.200000003,0,0,3.0999999,3,2.5,0.669955611,-0.02184969,-0.249735206,0.0860010162,0.252789885,0,0,-0.0853243619,-0.252811939,-0.983830571,2.90860701,-1.01109374,0.0272631925,-0,2.71772838,0.190878585,0,1515,1951,1481,1365,11.8500004,10.75,21.6700001,0.319999993,0.469999999,0.540000021,0,0,1,0,0
9.741879,1783675223.683946,167,-9.82370186,-2.90353179,-4.91192055,0,0.186871067,-0.162187412,1.02931392,-5.61717319,-37.2962646,-22.0179882,110.646004,992.071411,0,0.0860000029,-8.95438671,10.1671495,-6.8651371,3.22629094,-2.08924961,6.94085884,0.99720782,0.699999988,-2.41000009,-2.5999999,-3,-0.200000003,0,0,3.0999999,3,2.5,0.286980122,0.0966968611,-0.247367293,0.111474372,0.254191697,0,0,-0.110894851,-0.254006684,-1.28843713,2.92739105,-1.31410408,0.0256669093,-0,2.73057175,0.196819395,-0,1515,1951,1490,1350,11.8500004,10.75,21.6700001,0.319999993,0.469999999,0.540000021,0,0,1,0,0
9.805042,1783675223.747109,168,-9.6982832,-3.0644083,-5.73618507,0,0.125426754,-0.0937043279,1.06857097,-4.94803667,-30.1984901,-21.6868076,110.696007,992.071411,0,0.501000047,-5.01151943,6.66927099,-6.75255013,3.07032776,1.74103069,3.59894323,0.995980263,1.00899994,-2.41000009,-2.5999999,-3,-0.200000003,0,0,3.0999999,3,2.5,0.330205292,-0.0928490534,-0.175543383,0.125750273,0.255850196,0,0,-0.125417098,-0.255943894,-1.46241951,2.95422173,-1.4861927,0.0237731859,-0,2.75139689,0.202824771,0,1515,1951,1506,1324,11.8500004,10.75,21.6700001,0.319999993,0.469999999,0.540000021,0,0,1,0,0
9.836650,1783675223.778717,169,-9.64910316,-2.93608737,-6.66607475,0,0.306629121,-0.137934238,0.853196859,0.0753859878,-36.2053375,-15.4200163,110.746002,992.071411,0,0.454000026,-9.18341064,19.5337696,-6.68634415,3.14731073,-2.4970665,16.3864594,0.995984197,1.00800002,-2.41000009,-2.5999999,-3,-0.200000003,0,0,3.0999999,3,2.5,0.522526026,-0.117903069,-0.0674361289,0.146281421,0.252241969,0,0,-0.14575471,-0.252360821,-1.70558417,2.92168236,-1.72719336,0.0216091853,-0,2.7128787,0.208803698,0,1515,1951,1516,1304,11.8500004,10.75,21.6700001,0.319999993,0.469999999,0.540000021,0,0,1,0,0
9.899194,1783675223.841261,170,-9.79253578,-3.247051,-7.2840271,0,0.0809870735,-0.0540132001,1.10294163,6.33358622,-19.7552032,-10.2331991,110.796005,992.071411,0,0.721000016,-2.80364609,4.19458294,-6.85607767,2.89694095,4.05243158,1.29764199,0.995984197,1.00800002,-2.41000009,-2.5999999,-3,-0.200000003,0,0,3.0999999,3,2.5,-0.215832651,-0.139800683,-0.146072417,0.148928016,0.24457033,0,0,-0.149145573,-0.24471125,-1.74817693,2.84528255,-1.76737511,0.0191982072,0,2.63064599,0.214636609,0,1515,1905,1514,1309,11.8500004,10.75,21.6700001,0.319999993,0.469999999,0.540000021,0,0,1,0,0
9.961735,1783675223.903802,171,-10.2925739,-2.86472249,-7.46867943,0,0.319634318,-0.0941079929,0.881447256,8.41819382,-25.3549976,-7.22676659,110.846008,992.071411,0,0.527999997,-6.09411669,19.8280468,-7.34474039,3.21943069,1.2506237,16.6086159,0.996083379,0.98300004,-2.41000009,-2.5999999,-3,-0.200000003,0,0,3.0999999,3,2.5,0.290280551,-0.0112785092,-0.322025508,0.149107561,0.243641347,0,0,-0.148822218,-0.243652433,-1.74669659,2.83961391,-1.76354337,0.0168468114,-0,2.61926365,0.22035028,-0,1515,1858,1515,1306,11.8500004,10.75,21.6700001,0.319999993,0.469999999,0.540000021,0,0,1,0,0
10.024465,1783675223.966532,172,-10.6163006,-2.61577106,-7.40769005,0,0.183988348,-0.0465044528,1.04385269,9.26190186,-13.8376913,-5.19539022,110.896004,992.027893,0,0.0910000056,-2.55088496,9.98651123,-7.68226099,3.50983906,5.13137627,6.47667217,0.996357262,0.913999975,-2.41000009,-2.5999999,-3,-0.200000003,0,0,3.0999999,3,2.5,-0.129617304,-0.238399163,-0.342501968,0.150444925,0.240987808,0,0,-0.150719315,-0.241424322,-1.77160275,2.82138753,-1.78602397,0.0144211752,0,2.5953114,0.226076037,0,1515,1828,1503,1330,11.8500004,10.75,21.6700001,0.319999993,0.469999999,0.540000021,0,0,1,0,0
10.086298,1783675224.028365,173,-10.7438393,-2.02378464,-7.27002525,0,0.182259589,-0.0131938383,1.03342056,13.3115425,-12.7784214,-6.25938702,110.946007,992.027893,0,0.538000047,-0.731464207,10.0013332,-7.81960058,4.10170317,7.0881362,5.89963007,0.995980263,1.00899994,-2.41000009,-2.5999999,-3,-0.200000003,0,0,3.0999999,3,2.5,0.149635598,-0.379627585,-0.525518656,0.152541265,0.225651205,0,0,-0.152390286,-0.226034254,-1.79380083,2.66145158,-1.805825,0.0120241251,-0,2.42986822,0.231583387,0,1515,1803,1503,1328,11.8500004,10.75,21.6700001,0.319999993,0.469999999,0.540000021,0,0,1,0,0
10.162212,1783675224.104279,174,-10.5103197,-1.67133093,-6.90132904,0,0.125267997,0.0318060182,1.08574951,7.21434307,-9.3479948,-6.52468872,110.996002,992.027893,0,0.148000002,1.67794657,6.57858562,-7.59478855,4.46941042,9.2727356,2.10917521,0.99598819,1.00699997,-2.41000009,-2.5999999,-3,-0.200000003,0,0,3.0999999,3,2.5,-0.143033534,-0.491496861,-0.460288495,0.153167069,0.204300448,0,0,-0.153311104,-0.20479539,-1.80718875,2.43819714,-1.81673658,0.00954783987,0,2.20155048,0.236646742,0,1514,1864,1497,1339,11.8500004,10.75,21.6700001,0.319999993,0.469999999,0.540000021,0,0,1,0,0
10.193368,1783675224.135434,175,-9.68856335,-1.03422022,-6.73500824,0,0.36540392,0.0920560509,1.07336295,6.68240786,-26.8403969,-10.9290352,111.046005,992.027893,0,0.573000014,4.90192842,18.7361088,-6.78852844,5.05330515,11.6904564,13.6828041,0.995492339,1.13199997,-2.41000009,-2.5999999,-3,-0.200000003,0,0,3.0999999,3,2.5,0.455363452,-0.879166365,-0.856217265,0.164717272,0.173420206,0,0,-0.164201796,-0.174415424,-1.93873477,2.11609602,-1.94579136,0.00705660926,-0,1.87496579,0.241130337,0,1515,1873,1501,1332,11.8500004,10.75,21.6700001,0.319999993,0.469999999,0.540000021,0,0,1,0,0
10.257068,1783675224.199135,176,-9.12150764,-1.00922823,-6.66710472,0,0.157503262,-0.0799549073,1.19379079,-4.94376278,-31.2886944,-4.6277194,111.096008,992.027893,0,0.308000028,-3.83169937,7.49932241,-6.17819881,5.13046169,2.34649944,2.36886072,0.995984197,1.00800002,-2.41000009,-2.5999999,-3,-0.200000003,0,0,3.0999999,3,2.5,0.221542925,-0.05572588,-0.829230845,0.188791692,0.14258568,0,0,-0.188568383,-0.142641857,-2.23033357,1.77815223,-2.23453546,0.00420196913,-0,1.53339994,0.244752273,0,1515,1951,1501,1332,11.8500004,10.75,21.6700001,0.319999993,0.469999999,0.540000021,0,0,1,0,0
10.319866,1783675224.261932,177,-8.27799511,-1.58459902,-6.70902824,0,0.35596326,-0.00803576037,0.820963681,-10.5312672,-48.3890686,-5.66910791,111.146004,991.984131,0,0.407000005,-0.560804904,23.4401665,-5.33837461,4.51265955,4.77756977,18.9275074,0.997255623,0.688000023,-2.41000009,-2.5999999,-3,-0.200000003,0,0,3.0999999,3,2.5,0.334262669,-0.229930237,-0.311294973,0.196557388,0.140314296,0,0,-0.196015194,-0.140747994,-2.32165623,1.76113701,-2.32278013,0.00112385547,-0,1.5130409,0.248096153,0,1515,1951,1503,1329,11.8500004,10.75,21.6700001,0.319999993,0.469999999,0.540000021,0,0,1,0,0
10.382262,1783675224.324329,178,-7.42298317,-2.49718046,-6.8268013,0,0.0273378864,-0.059582442,1.17373884,-3.17211509,-48.3854332,-3.29295254,111.196007,991.984131,0,0.507000029,-2.90600824,1.33253586,-4.47657108,3.66139293,1.57056284,-2.32885695,0.995976269,1.00999999,-2.41000009,-2.5999999,-3,-0.200000003,0,0,3.0999999,3,2.5,-0.0156318918,-0.184124351,-0.527261257,0.206115797,0.123836823,0,0,-0.206131592,-0.124022789,-2.44476891,1.58445692,-2.44265938,-0.00210957648,-0,1.33324504,0.251211882,0,1515,1951,1501,1332,11.8500004,10.75,21.6700001,0.319999993,0.469999999,0.540000021,0,0,1,0,0
10.413538,1783675224.355604,179,-7.60711336,-3.83112574,-6.88406944,0,0.285658628,-0.122229129,0.87475127,-1.04940724,-62.0321312,-6.29518127,111.246002,991.984131,0,0.41200003,-7.95444632,17.9221306,-4.64104939,2.25503707,-3.31339693,15.6670933,0.995976269,1.00999999,-2.41000009,-2.5999999,-3,-0.200000003,0,0,3.0999999,3,2.5,-0.207398325,0.317458183,-0.52145052,0.196340799,0.131989032,0,0,-0.196550265,-0.131668404,-2.33446908,1.66961241,-2.32912064,-0.00534844026,0,1.41543531,0.254177094,-0,1515,1951,1507,1322,11.8500004,10.75,21.6700001,0.319999993,0.469999999,0.540000021,0,0,1,0,0
10.491838,1783675224.433905,180,-8.09246254,-4.87478685,-6.85444832,0,0.0562034436,-0.151191741,1.17363298,-1.6849438,-62.9704208,0.0963425636,111.296005,991.984131,0,0.0950000063,-7.34062529,2.71927357,-5.13061857,1.26843405,-2.21000671,1.45083952,0.995877028,1.03499997,-2.41000009,-2.5999999,-3,-0.200000003,0,0,3.0999999,3,2.5,-0.108560458,0.448149264,-0.617488563,0.195247978,0.154960051,0,0,-0.195365354,-0.154044211,-2.3235352,1.91350794,-2.31507945,-0.00845577475,-0,1.65597522,0.257532656,-0,1515,1951,1501,1332,11.8500004,10.75,21.6700001,0.319999993,0.469999999,0.540000021,0,0,1,0,0
10.555513,1783675224.497579,181,-8.53909874,-6.21302319,-6.77874756,0,0.317743957,-0.0801082626,0.938298643,3.07078457,-68.8818893,-3.04847193,111.346008,991.984131,0,0.298000008,-4.87985563,18.6449566,-5.58921814,-0.139328018,0.709362507,18.7842846,0.995980263,1.00899994,-2.41000009,-2.5999999,-3,-0.200000003,0,0,3.0999999,3,2.5,-0.304833412,0.320898563,-0.698435545,0.183547571,0.173248217,0,0,-0.183855146,-0.172924429,-2.1901989,2.12033486,-2.17868352,-0.0115154684,0,1.85893762,0.261397272,-0,1515,1913,1504,1328,11.8500004,10.75,21.6700001,0.319999993,0.469999999,0.540000021,0,0,1,0,0
10.586028,1783675224.528095,182,-9.08719254,-7.22114754,-6.43242645,0,0.0520138592,-0.104510605,1.174523,5.07226992,-61.9165726,6.34801769,111.396004,992.047668,0,0.32100001,-5.08486223,2.52572584,-6.13835716,-1.08529973,1.05349493,3.61102557,0.996301651,0.928000033,-2.41000009,-2.5999999,-3,-0.200000003,0,0,3.0999999,3,2.5,-0.193263441,0.211705938,-0.630945027,0.174539655,0.189824089,0,0,-0.174826086,-0.189371005,-2.08605123,2.30141521,-2.07168913,-0.0143621154,-0,2.03573823,0.265677065,-0,1515,1898,1491,1349,11.8500004,10.75,21.6700001,0.319999993,0.469999999,0.540000021,0,0,1,0,0
10.648552,1783675224.590619,183,-9.71043968,-8.3956213,-5.85684204,0,0.245243311,-0.109781422,0.929924726,9.67690468,-67.8426819,7.41831017,111.446007,992.047668,0,0.5,-6.73283863,14.6764116,-6.75780773,-2.31471801,0.024969101,16.9911289,0.995980263,1.00899994,-2.41000009,-2.5999999,-3,-0.200000003,0,0,3.0999999,3,2.5,-0.574582219,0.249973878,-0.554710388,0.156897932,0.199599952,0,0,-0.157477692,-0.199347734,-1.88316047,2.41323447,-1.86611068,-0.0170497876,0,2.1429882,0.270246178,-0,1515,1844,1486,1356,11.8500004,10.75,21.6700001,0.319999993,0.469999999,0.540000021,0,0,1,0,0
10.711073,1783675224.653140,184,-10.0273552,-8.97080994,-4.86726952,0,0.0469090492,-0.176913649,1.0158354,12.1361542,-49.7251663,29.6014671,111.496002,992.047668,0,0.125,-9.87930775,2.60476375,-7.06330442,-2.84350801,-2.81600332,5.44827175,0.995980263,1.00899994,-2.41000009,-2.5999999,-3,-0.200000003,0,0,3.0999999,3,2.5,-0.328135669,-0.20064038,-0.135830477,0.13808544,0.202783972,0,0,-0.138416529,-0.202986419,-1.65962732,2.45714569,-1.6402359,-0.0193913896,0,2.18210411,0.27504164,0,1515,1832,1470,1379,11.8500004,10.75,21.6700001,0.319999993,0.469999999,0.540000021,0,0,1,0,0
10.771511,1783675224.713578,185,-10.1157341,-9.53645992,-3.61416245,0,0.0679931939,-0.0603605658,0.920358002,11.7384501,-33.8552551,37.9432907,111.546005,992.047668,0,0.550000012,-3.75230074,4.21613407,-7.1788969,-3.42268896,3.42659616,7.63882303,0.995361626,1.16500008,-2.41000009,-2.5999999,-3,-0.200000003,0,0,3.0999999,3,2.5,-0.870272994,-0.309247106,0.0987119675,0.107149437,0.190156952,0,0,-0.108163305,-0.190517232,-1.30313492,2.3277421,-1.28173518,-0.0213997904,0,2.04806018,0.27968201,0,1515,1823,1449,1406,11.8500004,10.75,21.6700001,0.319999993,0.469999999,0.540000021,0,0,1,0,0
10.847962,1783675224.790029,186,-9.51519203,-9.38820744,-2.16946602,0,0.136065409,-0.0210274421,0.96509552,7.02716637,-18.4618454,22.9842453,111.596008,992.047668,0,0.280000001,-1.24815953,8.02315807,-6.58390808,-3.28445816,5.33574867,11.3076162,0.995980263,1.00899994,-2.41000009,-2.5999999,-3,-0.200000003,0,0,3.0999999,3,2.5,-0.730424941,-0.68749094,-0.153485417,0.0596844666,0.16312933,0,0,-0.0604214668,-0.163823009,-0.738711417,2.04497123,-0.715994418,-0.0227170084,0,1.76109731,0.283873975,0,1515,1863,1432,1423,11.8500004,10.75,21.6700001,0.319999993,0.469999999,0.540000021,0,0,1,0,0
10.878897,1783675224.820964,187,-8.65207291,-8.13789177,-0.999160767,0,0.209519356,-0.00856009126,1.027946,-2.29021072,-7.76406193,19.2092171,111.646004,991.924622,0,0.135000005,-0.477112353,11.5200224,-5.71387959,-2.02629685,5.23676729,13.546319,0.997223735,0.69599998,-2.41000009,-2.5999999,-3,-0.200000003,0,0,3.0999999,3,2.5,-0.754164934,-0.530205965,-0.515455723,0.0300167035,0.132861525,0,0,-0.0316559188,-0.133912697,-0.398567736,1.72689915,-0.375122637,-0.0234451033,0,1.43956149,0.28733772,0,1367,1951,1427,1429,11.8500004,10.75,21.6700001,0.319999993,0.469999999,0.540000021,0,0,1,0,0
10.972823,1783675224.914890,188,-7.9452877,-6.53933048,-0.290035248,0,0.0475945026,-0.129682034,1.16899633,-7.30986357,11.657032,0.655573845,111.696007,991.924622,0,0.480000019,-6.33019686,2.31725264,-4.98715734,-0.401054621,-1.34303951,2.71830726,0.995980263,1.00899994,-2.41000009,-2.5999999,-3,-0.200000003,0,0,3.0999999,3,2.5,-0.851300061,-0.117992982,-0.452096403,-0.00215038145,0.116922453,0,0,0.00129141961,-0.117041506,-0.00837786496,1.54840004,0.015303323,-0.023681188,0,1.25819623,0.29020378,0,1367,1951,1435,1420,11.8500004,10.75,21.6700001,0.319999993,0.469999999,0.540000021,0,0,1,0,0
11.003352,1783675224.945419,189,-7.74571609,-5.69006014,0.194196701,0,-0.14075689,-0.203254879,1.18456733,-12.737442,28.6765289,6.42541695,111.746002,991.924622,0,0.138000011,-9.73632717,-6.67971325,-4.77303362,0.487954885,-4.96329355,-7.16766834,0.995980263,1.00899994,-2.41000009,-2.5999999,-3,-0.200000003,0,0,3.0999999,3,2.5,-1.47349548,0.489278048,-0.417151868,-0.0643482283,0.12937668,0,0,0.0628614724,-0.128883004,0.721719205,1.67852437,0.744908452,-0.0231892597,0,1.38549232,0.29303202,-0,1367,1951,1424,1432,11.8500004,10.75,21.6700001,0.319999993,0.469999999,0.540000021,0,0,1,0,0
11.064864,1783675225.006931,190,-7.71634626,-3.9480083,0.732275009,0,-0.269162983,-0.289525151,1.10912061,-12.6703215,57.3811874,4.35578346,111.796005,991.924622,0,0.731000006,-14.6300316,-13.2143946,-4.72379446,2.26341128,-9.90623665,-15.4778061,0.995980263,1.00899994,-2.41000009,-2.5999999,-3,-0.200000003,0,0,3.0999999,3,2.5,-1.16093135,0.643996119,-0.482819021,-0.11758846,0.152303606,0,0,0.11641708,-0.151653811,1.3578192,1.92659783,1.37954247,-0.0217232704,0,1.63027847,0.296319366,-0,1367,1951,1413,1442,11.8500004,10.75,21.6700001,0.319999993,0.469999999,0.540000021,0,0,1,0,0
11.126886,1783675225.068953,191,-8.07174873,-2.71928382,1.30937386,0,-0.101357177,-0.251891613,1.02203524,-16.7476006,58.0719986,19.3110275,111.846008,991.924622,0,0.637000024,-13.845232,-5.50008392,-5.08470631,3.4650321,-8.7605257,-8.9651165,0.996083379,0.98300004,-2.41000009,-2.5999999,-3,-0.200000003,0,0,3.0999999,3,2.5,-1.56000447,0.828218281,-0.329434156,-0.18639721,0.193387344,0,0,0.184863731,-0.192573205,2.17130804,2.37052202,2.1906352,-0.0193271767,0,2.07016206,0.300359875,-0,1367,1951,1412,1443,11.8500004,10.75,21.6700001,0.319999993,0.469999999,0.540000021,0,0,1,0,0
11.193396,1783675225.135463,192,-8.10325623,-1.18068838,1.76720238,0,-0.0920622051,-0.0540397614,1.04978383,-15.2586222,67.4013062,3.30275536,111.896004,992.154419,0,0.0870000049,-2.94681597,-5.00521517,-5.15858078,5.00497913,2.21176481,-10.0101948,0.996357262,0.913999975,-2.41000009,-2.5999999,-3,-0.200000003,0,0,3.0999999,3,2.5,-1.01814413,0.422877401,-0.388103366,-0.247653574,0.223695278,0,0,0.245576367,-0.222753957,2.8942585,2.69988847,2.91007996,-0.0158213936,0,2.39460492,0.305283487,-0,1367,1951,1408,1447,11.8500004,10.75,21.6700001,0.319999993,0.469999999,0.540000021,0,0,1,0,0
11.237421,1783675225.179488,193,-8.2087698,0.261276722,1.90245247,0,-0.119376414,-0.0827358365,1.10809898,-10.431778,73.9678345,-13.7517605,111.946007,992.154419,0,0.524000049,-4.27004671,-6.13186932,-5.26002169,6.46115065,0.989974976,-12.5930195,0.995976269,1.00999999,-2.41000009,-2.5999999,-3,-0.200000003,0,0,3.0999999,3,2.5,-0.897237539,0.294142991,-0.458809704,-0.294181049,0.239548191,0,0,0.29327485,-0.239251107,3.4638226,2.88268709,3.47530699,-0.0114843193,0,2.57194948,0.31073758,-0,1367,1951,1391,1462,11.8500004,10.75,21.6700001,0.319999993,0.469999999,0.540000021,0,0,1,0,0
11.317441,1783675225.259507,194,-8.87459755,1.57689285,1.93370056,0,0.0975571424,-0.41831398,1.01623452,-16.4875107,71.410965,12.1607418,111.996002,992.154419,0,0.124000005,-22.3736019,5.07296371,-5.8554678,7.73680353,-16.5181351,-2.66383982,0.995980263,1.00899994,-2.41000009,-2.5999999,-3,-0.200000003,0,0,3.0999999,3,2.5,-0.310128659,0.890405297,-0.616405249,-0.327869534,0.266190857,0,0,0.32755661,-0.265292436,3.87506413,3.16851902,3.88154602,-0.00648185983,0,2.85189366,0.316625416,-0,1367,1951,1424,1435,11.8500004,10.75,21.6700001,0.319999993,0.469999999,0.540000021,0,0,1,0,0
11.348446,1783675225.290512,195,-8.87953758,2.38290739,1.88065529,0,0.051675871,-0.218656421,1.06283414,-20.6999779,68.5805664,21.4915447,112.046005,992.154419,0,0.570000052,-11.6252365,2.7265625,-5.89981842,8.55960464,-5.72541809,-5.83304214,0.995286405,1.18400002,-2.41000009,-2.5999999,-3,-0.200000003,0,0,3.0999999,3,2.5,-0.641914904,0.378315419,-1.45290458,-0.359355599,0.299828351,0,0,0.35859558,-0.299380422,4.24834442,3.54167342,4.2493577,-0.00101346476,0,3.21833944,0.323333949,-0,1367,1951,1422,1436,11.8500004,10.75,21.6700001,0.319999993,0.469999999,0.540000021,0,0,1,0,0
11.410964,1783675225.353030,196,-8.56904697,3.26099348,1.82098961,0,-0.308239698,-0.0673103929,1.04319406,-19.813139,82.9887466,-13.2923794,112.096008,992.154419,0,0.361000031,-3.69179916,-16.428875,-5.62406731,9.51427555,1.93226814,-25.9431496,0.99598819,1.00699997,-2.41000009,-2.5999999,-3,-0.200000003,0,0,3.0999999,3,2.5,-0.223629862,0.150635004,-1.00302994,-0.379592001,0.305903018,0,0,0.379366815,-0.305751324,4.50043964,3.61729074,4.49549675,0.00494289678,0,3.28682661,0.330464095,-0,1367,1951,1385,1469,11.8500004,10.75,21.6700001,0.319999993,0.469999999,0.540000021,0,0,1,0,0
11.473637,1783675225.415703,197,-8.40525627,3.70065355,2.25902939,0,-0.223826528,-0.404889226,1.0569104,-12.8146648,74.6947632,24.2043743,112.146004,992.134644,0,0.0870000049,-20.961216,-11.1864586,-5.40897751,9.90892601,-15.5522385,-21.0953846,0.997199893,0.701999962,-2.41000009,-2.5999999,-3,-0.200000003,0,0,3.0999999,3,2.5,-0.819070518,-0.0403624475,-0.814921737,-0.400795519,0.311805964,0,0,0.39919582,-0.312081486,4.74161577,3.69264507,4.73047066,0.0111449724,0,3.35487604,0.337769032,0,1367,1951,1382,1471,11.8500004,10.75,21.6700001,0.319999993,0.469999999,0.540000021,0,0,1,0,0
11.505805,1783675225.447872,198,-8.41367912,4.2073617,2.92277813,0,-0.017883122,-0.266048729,1.05353165,-3.39199638,68.4288406,18.5424385,112.196007,992.134644,0,0.540000021,-14.1726141,-0.942876875,-5.42578745,10.4021683,-8.74682617,-11.3450451,0.995980263,1.00899994,-2.41000009,-2.5999999,-3,-0.200000003,0,0,3.0999999,3,2.5,-0.307118624,-0.143631667,-0.495624006,-0.42832157,0.302164555,0,0,0.428011686,-0.302309483,5.08974552,3.59481549,5.07193851,0.0178071223,0,3.24982691,0.344988644,0,1367,1951,1397,1460,11.8500004,10.75,21.6700001,0.319999993,0.469999999,0.540000021,0,0,1,0,0
11.568329,1783675225.510395,199,-8.82939148,5.17407274,3.10752869,0,-0.0103100538,-0.116816096,1.17494142,-0.969141126,65.9967804,-6.36296797,112.246002,992.134644,0,0.141000003,-5.67785406,-0.500288308,-5.87746239,11.3710432,0.199608326,-11.8713312,0.995976269,1.00999999,-2.41000009,-2.5999999,-3,-0.200000003,0,0,3.0999999,3,2.5,0.154732645,0.00762036443,-1.04707301,-0.419878095,0.295554787,0,0,0.420034379,-0.295547098,5.00202036,3.52911997,4.97740746,0.0246130265,-0,3.17713141,0.351988435,-0,1367,1951,1385,1470,11.8500004,10.75,21.6700001,0.319999993,0.469999999,0.540000021,0,0,1,0,0
