pc_elapsed_s,pc_unix_s,frame_index,roll_deg,pitch_deg,yaw_deg,altitude_m,accel_x_g,accel_y_g,accel_z_g,gyro_x_dps,gyro_y_dps,gyro_z_dps,fc_time_s,imu_irq_hz,imu_poll_hz,imu_age_ms,roll_acc_deg,pitch_acc_deg,roll_gyro_deg,pitch_gyro_deg,roll_residual_deg,pitch_residual_deg,attitude_cf_alpha,attitude_dt_ms,coax_roll_rate_kd,coax_pitch_rate_kd,coax_yaw_angle_kp,coax_yaw_rate_kd,coax_vel_x_kd,coax_vel_y_kd,coax_vel_z_kd,coax_accel_xy_limit_m_s2,coax_accel_z_limit_m_s2,nav_acc_x_m_s2,nav_acc_y_m_s2,nav_acc_z_m_s2,vel_est_x_m_s,vel_est_y_m_s,vel_ref_x_m_s,vel_ref_y_m_s,vel_err_x_m_s,vel_err_y_m_s,vel_pid_out_x_m_s2,vel_pid_out_y_m_s2,vel_pid_p_x_m_s2,vel_pid_i_x_m_s2,vel_pid_d_x_m_s2,vel_pid_p_y_m_s2,vel_pid_i_y_m_s2,vel_pid_d_y_m_s2,servo_alpha_us,servo_beta_us,motor_upper_us,motor_lower_us,vel_loop_x_kp,vel_loop_y_kp,vel_loop_output_limit_m_s2,vel_loop_x_ki,vel_loop_y_ki,vel_loop_i_limit_m_s2,vel_loop_x_kd,vel_loop_y_kd,vel_loop_enable,flow_raw_vx_m_s,flow_raw_vy_m_s
0.144244,1783678204.183336,1,-2.74561334,-2.87272429,-2.82597923,0,0.049716495,0.00587371038,0.994909108,0.0393630117,0.0233135838,0.0127699319,429.117035,991.821472,0,0.075000003,0.338256955,2.86069179,0.331659883,2.84427524,0.00659707189,0.0164165497,0.995781898,1.05900002,-1.60000002,-1.60000002,-3,-0.200000003,0,0,3.0999999,3,2.5,0,0,0,1.697056e-05,-1.697056e-05,0,0,-0.0430538096,-0.136512905,-0.258322865,-0.818422794,-0.258322865,0,-0,-0.819077432,0.00065461616,0,1457,1803,1465,1386,6,-6,21.6700001,0,0.0199999996,0.540000021,0,0,1,0.000212132014,-0.000212132014
0.206327,1783678204.245419,2,-2.74601269,-2.87756324,-2.82647324,0,0.0485877544,0.00523509411,0.994508803,0.0184073374,-0.0678584352,-0.0150679359,429.167023,991.845276,0,0.651000023,0.301602185,2.79698181,0.331408024,2.8396771,-0.0298058391,-0.0426952839,0.995980263,1.00899994,-1.60000002,-1.60000002,-3,-0.200000003,0,0,3.0999999,3,2.5,0,0,0,3.39411199e-05,0,0,0,-0.0430538096,-0.136512905,-0.258322865,-0.818422794,-0.258322865,0,-0,-0.819077432,0.00065461616,0,1457,1803,1465,1386,6,-6,21.6700001,0,0.0199999996,0.540000021,0,0,1,0.000424264028,-0
0.237930,1783678204.277022,3,-2.74372816,-2.88698721,-2.82651329,0,0.0494444147,0.00587830553,0.994506001,0.0252660625,0.0855137855,-0.0159707367,429.21701,991.845276,0,0.24000001,0.33865878,2.84621358,0.333552718,2.83001781,0.0051060617,0.0161957741,0.996059656,0.988999963,-1.60000002,-1.60000002,-3,-0.200000003,0,0,3.0999999,3,2.5,0,0,0,3.39411199e-05,3.39411199e-05,0,0,-0.0430538096,-0.136512905,-0.258322865,-0.818422794,-0.258322865,0,-0,-0.819077432,0.00065461616,0,1457,1803,1465,1386,6,-6,21.6700001,0,0.0199999996,0.540000021,0,0,1,0.000424264028,0.000424264028
0.300924,1783678204.340016,4,-2.74247885,-2.8853128,-2.8266716,0,0.0483489893,0.00541674439,0.994502604,0.0259801559,-0.0548356697,0.0385524035,429.267029,991.845276,0,0.834000051,0.312069088,2.78327346,0.334914207,2.83195162,-0.0228451192,-0.0486781597,0.995976269,1.00999999,-1.60000002,-1.60000002,-3,-0.200000003,0,0,3.0999999,3,2.5,0,0,0,0,0,0,0,-0.0430538096,-0.136512905,-0.258322865,-0.818422794,-0.258322865,0,-0,-0.819077432,0.00065461616,0,1457,1803,1465,1386,6,-6,21.6700001,0,0.0199999996,0.540000021,0,0,1,-0,-0
0.362152,1783678204.401244,5,-2.74582338,-2.89659333,-2.82722664,0,0.0490342937,0.00588123221,0.99392873,0.0278234687,0.00705179852,-0.00248364545,429.317017,991.845276,0,0.425000012,0.339024186,2.82428026,0.331447244,2.82046008,0.00757694244,0.00382018089,0.995980263,1.00899994,-1.60000002,-1.60000002,-3,-0.200000003,0,0,3.0999999,3,2.5,0,0,0,1.697056e-05,1.697056e-05,0,0,-0.0430538096,-0.136512905,-0.258322865,-0.818422794,-0.258322865,0,-0,-0.819077432,0.00065461616,0,1457,1803,1465,1386,6,-6,21.6700001,0,0.0199999996,0.540000021,0,0,1,0.000212132014,0.000212132014
0.423721,1783678204.462813,6,-2.74702263,-2.89050055,-2.82778549,0,0.0508668087,0.00500681577,0.994102895,-0.013048619,0.0337280482,-0.0235656239,429.367035,991.845276,0,0.0780000016,0.288568705,2.92915058,0.3304407,2.82616901,-0.0418719947,0.102981567,0.996123135,0.97299999,-1.60000002,-1.60000002,-3,-0.200000003,0,0,3.0999999,3,2.5,5.89996598e-05,-8.07521501e-05,1.95121775e-05,3.39985272e-05,3.38625468e-05,0,0,-0.0430538096,-0.136512905,-0.258322865,-0.818422794,-0.258322865,0,-0,-0.819077432,0.00065461616,0,1457,1803,1465,1386,6,-6,21.6700001,0,0.0199999996,0.540000021,0,0,1,0.000424264028,0.000424264028
0.485224,1783678204.524316,7,-2.74701643,-2.88949823,-2.82807732,0,0.0486502573,0.00584553508,0.994361341,0.0377029255,-0.13520962,-0.0569019318,429.417023,991.85321,0,0.613000035,0.336819857,2.80097938,0.330258161,2.82767773,0.00656169653,-0.0266983509,0.995984197,1.00800002,-1.60000002,-1.60000002,-3,-0.200000003,0,0,3.0999999,3,2.5,0,0,0,6.78822471e-05,3.39411272e-05,0,0,-0.0430538096,-0.136512905,-0.258322865,-0.818422794,-0.258322865,0,-0,-0.819077432,0.00065461616,0,1457,1803,1465,1386,6,-6,21.6700001,0,0.0199999996,0.540000021,0,0,1,0.000848528114,0.000424264115
0.547775,1783678204.586867,8,-2.74911022,-2.89201784,-2.82814789,0,0.0482347272,0.00531570055,0.994404554,-0.0155374641,0.0523704998,0.0291390698,429.46701,991.85321,0,0.203000009,0.30627808,2.77698088,0.328279227,2.82524467,-0.0220011473,-0.0482637882,0.995984197,1.00800002,-1.60000002,-1.60000002,-3,-0.200000003,0,0,3.0999999,3,2.5,0,0,0,1.697056e-05,1.697056e-05,0,0,-0.0430538096,-0.136512905,-0.258322865,-0.818422794,-0.258322865,0,-0,-0.819077432,0.00065461616,0,1457,1803,1465,1386,6,-6,21.6700001,0,0.0199999996,0.540000021,0,0,1,0.000212132014,0.000212132014
0.607795,1783678204.646886,9,-2.74982882,-2.88597608,-2.82814217,0,0.0507835187,0.00544638559,0.994252384,0.040814206,-0.0497251153,0.0285027474,429.517029,991.85321,0,0.800000012,0.313855708,2.92391706,0.327527285,2.83071804,-0.013671577,0.0931990147,0.995980263,1.00899994,-1.60000002,-1.60000002,-3,-0.200000003,0,0,3.0999999,3,2.5,0,0,0,3.39411199e-05,3.39411199e-05,0,0,-0.0430538096,-0.136512905,-0.258322865,-0.818422794,-0.258322865,0,-0,-0.819077432,0.00065461616,0,1457,1803,1465,1386,6,-6,21.6700001,0,0.0199999996,0.540000021,0,0,1,0.000424264028,0.000424264028
0.639310,1783678204.678402,10,-2.74714756,-2.87531018,-2.82849121,0,0.0498490334,0.00623380113,0.994509935,-0.0178814735,0.0297790803,0.00629755994,429.567017,991.85321,0,0.391000032,0.359137505,2.86944842,0.330036491,2.84164667,0.0291010141,0.0278017521,0.995980263,1.00899994,-1.60000002,-1.60000002,-3,-0.200000003,0,0,3.0999999,3,2.5,0,0,0,0,0,0,0,-0.0430538096,-0.136512905,-0.258322865,-0.818422794,-0.258322865,0,-0,-0.819077432,0.00065461616,0,1457,1803,1465,1386,6,-6,21.6700001,0,0.0199999996,0.540000021,0,0,1,-0,-0
0.716324,1783678204.755415,11,-2.74588776,-2.87024713,-2.82867622,0,0.0497122593,0.00581309153,0.994526923,0.0439091772,-0.0107270684,0.0121833794,429.617035,991.85321,0,0.0890000015,0.334894717,2.86154675,0.331400126,2.84676552,0.00349459052,0.0147812366,0.996210456,0.951000035,-1.60000002,-1.60000002,-3,-0.200000003,0,0,3.0999999,3,2.5,9.51057737e-05,8.8721441e-05,7.93647778e-05,3.40315637e-05,3.40254956e-05,0,0,-0.0430538096,-0.136512905,-0.258322865,-0.818422794,-0.258322865,0,-0,-0.819077432,0.00065461616,0,1457,1803,1465,1386,6,-6,21.6700001,0,0.0199999996,0.540000021,0,0,1,0.000424264028,0.000424264028
0.779835,1783678204.818926,12,-2.7457695,-2.87840962,-2.82844162,0,0.0483161993,0.00583283231,0.994204164,0.0125029385,-0.00465676375,-0.0126546249,429.667023,991.857178,0,0.577000022,0.33614105,2.7822156,0.331513375,2.83888102,0.00462767482,-0.0566654205,0.996083379,0.98300004,-1.60000002,-1.60000002,-3,-0.200000003,0,0,3.0999999,3,2.5,0,0,0,5.09116835e-05,1.697056e-05,0,0,-0.0430538096,-0.136512905,-0.258322865,-0.818422794,-0.258322865,0,-0,-0.819077432,0.00065461616,0,1457,1803,1465,1386,6,-6,21.6700001,0,0.0199999996,0.540000021,0,0,1,0.000636396057,0.000212132014
0.811046,1783678204.850138,13,-2.74896765,-2.88233995,-2.82895851,0,0.0490660816,0.00508940686,0.994481444,0.0183974076,0.0210396424,-0.0374047086,429.71701,991.857178,0,0.164000005,0.293217123,2.8245523,0.328475058,2.83476973,-0.0352579355,-0.0102174282,0.995984197,1.00800002,-1.60000002,-1.60000002,-3,-0.200000003,0,0,3.0999999,3,2.5,0,0,0,6.78822398e-05,6.78822398e-05,0,0,-0.0430538096,-0.136512905,-0.258322865,-0.818422794,-0.258322865,0,-0,-0.819077432,0.00065461616,0,1457,1803,1465,1386,6,-6,21.6700001,0,0.0199999996,0.540000021,0,0,1,0.000848528056,0.000848528056
0.887540,1783678204.926632,14,-2.75038767,-2.88355827,-2.82894897,0,0.050039798,0.0058747516,0.994560242,-0.000726696104,-0.0384593047,0.0365409516,429.767029,991.857178,0,0.758000016,0.33843556,2.88027167,0.326866776,2.83332181,0.0115687847,0.0469498634,0.995980263,1.00899994,-1.60000002,-1.60000002,-3,-0.200000003,0,0,3.0999999,3,2.5,0,0,0,5.09116835e-05,1.697056e-05,0,0,-0.0430538096,-0.136512905,-0.258322865,-0.818422794,-0.258322865,0,-0,-0.819077432,0.00065461616,0,1457,1803,1465,1386,6,-6,21.6700001,0,0.0199999996,0.540000021,0,0,1,0.000636396057,0.000212132014
0.953972,1783678204.993064,15,-2.74949217,-2.89014077,-2.82888985,0,0.0490375943,0.00523733813,0.994089782,0.0327102356,0.00706723984,-0.0172398426,429.817017,991.857178,0,0.341000021,0.301858634,2.82402325,0.327913463,2.82693958,-0.0260548294,-0.00291633606,0.995980263,1.00899994,-1.60000002,-1.60000002,-3,-0.200000003,0,0,3.0999999,3,2.5,0,0,0,0,0,0,0,-0.0430538096,-0.136512905,-0.258322865,-0.818422794,-0.258322865,0,-0,-0.819077432,0.00065461616,0,1457,1803,1465,1386,6,-6,21.6700001,0,0.0199999996,0.540000021,0,0,1,-0,-0
0.984736,1783678205.023828,16,-2.74880695,-2.89556265,-2.8295517,0,0.0485249087,0.00597647205,0.993709385,-0.00918849558,-0.078755118,-0.00179238804,429.867035,991.857178,0,0.088000007,0.344590157,2.79560161,0.32843253,2.82160497,0.0161576271,-0.0260033607,0.996194601,0.954999983,-1.60000002,-1.60000002,-3,-0.200000003,0,0,3.0999999,3,2.5,-3.48275898e-05,0.000147811181,-1.81961059e-05,-3.32603491e-08,1.41159674e-07,0,0,-0.0430538096,-0.136512905,-0.258322865,-0.818422794,-0.258322865,0,-0,-0.819077432,0.00065461616,0,1457,1803,1465,1386,6,-6,21.6700001,0,0.0199999996,0.540000021,0,0,1,-0,-0
1.047039,1783678205.086131,17,-2.74566317,-2.90087795,-2.82907295,0,0.0488566756,0.00551407412,0.994843781,0.016347941,0.022055123,0.0232264511,429.917023,991.821472,0,0.533000052,0.317567378,2.81148791,0.331694633,2.81620979,-0.0141272545,-0.00472187996,0.995984197,1.00800002,-1.60000002,-1.60000002,-3,-0.200000003,0,0,3.0999999,3,2.5,0,0,0,-1.697056e-05,1.697056e-05,0,0,-0.0430538096,-0.136512905,-0.258322865,-0.818422794,-0.258322865,0,-0,-0.819077432,0.00065461616,0,1457,1803,1465,1386,6,-6,21.6700001,0,0.0199999996,0.540000021,0,0,1,-0.000212132014,0.000212132014
1.124744,1783678205.163836,18,-2.7486105,-2.899858,-2.82838821,0,0.0491098985,0.00553837558,0.994494498,0.0327915102,0.0373747796,0.0226497203,429.96701,991.821472,0,0.115000002,0.319078952,2.82702661,0.328729272,2.8171711,-0.00965031981,0.0098555088,0.995984197,1.00800002,-1.60000002,-1.60000002,-3,-0.200000003,0,0,3.0999999,3,2.5,0,0,0,1.697056e-05,5.09116835e-05,0,0,-0.0430538096,-0.136512905,-0.258322865,-0.818422794,-0.258322865,0,-0,-0.819077432,0.00065461616,0,1457,1803,1465,1386,6,-6,21.6700001,0,0.0199999996,0.540000021,0,0,1,0.000212132014,0.000636396057
1.156744,1783678205.195836,19,-2.74888659,-2.89349961,-2.82866096,0,0.0498954169,0.00527871633,0.994642735,0.0327051729,-0.10761328,0.0250967648,430.017029,991.821472,0,0.713000059,0.304074347,2.87174678,0.328512609,2.82337499,-0.024438262,0.0483717918,0.995984197,1.00800002,-1.60000002,-1.60000002,-3,-0.200000003,0,0,3.0999999,3,2.5,0,0,0,0,0,0,0,-0.0430538096,-0.136512905,-0.258322865,-0.818422794,-0.258322865,0,-0,-0.819077432,0.00065461616,0,1457,1803,1465,1386,6,-6,21.6700001,0,0.0199999996,0.540000021,0,0,1,-0,-0
1.220481,1783678205.259573,20,-2.75154495,-2.89270997,-2.82835579,0,0.0496415868,0.0058734729,0.994589746,0.0237689223,0.0210015085,0.000105669722,430.067017,991.821472,0,0.299000025,0.338351876,2.85730433,0.325705141,2.82422566,0.0126467347,0.0330786705,0.995976269,1.00999999,-1.60000002,-1.60000002,-3,-0.200000003,0,0,3.0999999,3,2.5,0,0,0,0,0,0,0,-0.0430538096,-0.136512905,-0.258322865,-0.818422794,-0.258322865,0,-0,-0.819077432,0.00065461616,0,1457,1803,1465,1386,6,-6,21.6700001,0,0.0199999996,0.540000021,0,0,1,-0,-0
1.282609,1783678205.321700,21,-2.75009608,-2.88904595,-2.82844543,0,0.0486613363,0.00592127349,0.994397283,0.0214439966,-0.0720967278,0.0317296609,430.117035,991.821472,0,0.841000021,0.341171473,2.80151343,0.327145964,2.82813454,0.0140255094,-0.0266211033,0.995797753,1.05499995,-1.60000002,-1.60000002,-3,-0.200000003,0,0,3.0999999,3,2.5,3.87579203e-05,9.63816055e-05,1.1272431e-05,3.79440053e-08,9.43575955e-08,0,0,-0.0430538096,-0.136512905,-0.258322865,-0.818422794,-0.258322865,0,-0,-0.819077432,0.00065461616,0,1457,1803,1465,1386,6,-6,21.6700001,0,0.0199999996,0.540000021,0,0,1,-0,-0
1.343391,1783678205.382483,22,-2.75177503,-2.89527035,-2.82805061,0,0.0479060188,0.00567070255,0.993728459,0.0210649911,0.0169818401,-0.00432216562,430.167023,991.805603,0,0.486000031,0.326954305,2.75995374,0.325520247,2.82204795,0.00143405795,-0.0620942116,0.995980263,1.00899994,-1.60000002,-1.60000002,-3,-0.200000003,0,0,3.0999999,3,2.5,0,0,0,5.09116835e-05,1.697056e-05,0,0,-0.0430538096,-0.136512905,-0.258322865,-0.818422794,-0.258322865,0,-0,-0.819077432,0.00065461616,0,1457,1803,1465,1386,6,-6,21.6700001,0,0.0199999996,0.540000021,0,0,1,0.000636396057,0.000212132014
1.405720,1783678205.444812,23,-2.75120497,-2.89419961,-2.82928658,0,0.0507712327,0.00602945546,0.994822621,0.0151216574,0.0489414521,-0.0249941498,430.21701,991.805603,0,0.077000007,0.347256005,2.92152834,0.326010644,2.82247114,0.0212453604,0.0990571976,0.995984197,1.00800002,-1.60000002,-1.60000002,-3,-0.200000003,0,0,3.0999999,3,2.5,0,0,0,0,0,0,0,-0.0430538096,-0.136512905,-0.258322865,-0.818422794,-0.258322865,0,-0,-0.819077432,0.00065461616,0,1457,1803,1465,1386,6,-6,21.6700001,0,0.0199999996,0.540000021,0,0,1,-0,-0
1.450796,1783678205.489888,24,-2.7525146,-2.9024229,-2.82959557,0,0.0492542535,0.00532055367,0.9944911,0.0462603718,-0.0402704366,0.0113533642,430.267029,991.805603,0,0.701000035,0.306530982,2.83533597,0.324859947,2.81456232,-0.0183289647,0.0207736492,0.995984197,1.00800002,-1.60000002,-1.60000002,-3,-0.200000003,0,0,3.0999999,3,2.5,0,0,0,1.697056e-05,-1.697056e-05,0,0,-0.0430538096,-0.136512905,-0.258322865,-0.818422794,-0.258322865,0,-0,-0.819077432,0.00065461616,0,1457,1803,1465,1386,6,-6,21.6700001,0,0.0199999996,0.540000021,0,0,1,0.000212132014,-0.000212132014
1.511679,1783678205.550771,25,-2.75225616,-2.90336752,-2.82966805,0,0.0490412153,0.00581127126,0.994053364,0.0164659228,0.0801729858,0.0202581417,430.317017,991.805603,0,0.258000016,0.334949344,2.8243258,0.325004876,2.81365824,0.00994446874,0.0106675625,0.995984197,1.00800002,-1.60000002,-1.60000002,-3,-0.200000003,0,0,3.0999999,3,2.5,0,0,0,-3.39411199e-05,0,0,0,-0.0430538096,-0.136512905,-0.258322865,-0.818422794,-0.258322865,0,-0,-0.819077432,0.00065461616,0,1457,1803,1465,1386,6,-6,21.6700001,0,0.0199999996,0.540000021,0,0,1,-0.000424264028,-0
1.588018,1783678205.627110,26,-2.75165439,-2.89687133,-2.82984734,0,0.0496370085,0.00503934221,0.994659305,-0.0106170457,-0.0110386917,-0.0078690201,430.367035,991.805603,0,0.85800004,0.290280879,2.85685515,0.325789869,2.82004905,-0.0355089903,0.0368061066,0.995968342,1.01199996,-1.60000002,-1.60000002,-3,-0.200000003,0,0,3.0999999,3,2.5,4.85318924e-05,-8.03701641e-06,-2.24304204e-05,-3.38923928e-05,3.39330509e-05,0,0,-0.0430538096,-0.136512905,-0.258322865,-0.818422794,-0.258322865,0,-0,-0.819077432,0.00065461616,0,1457,1803,1465,1386,6,-6,21.6700001,0,0.0199999996,0.540000021,0,0,1,-0.000424264028,0.000424264028
1.663662,1783678205.702754,27,-2.75470304,-2.90078974,-2.83002663,0,0.0484874435,0.00475644087,0.994881988,0.000479251146,0.00495721214,-0.0176574457,430.417023,991.849243,0,0.450000018,0.273923874,2.79017806,0.322794497,2.81638432,-0.0488706231,-0.026206255,0.995980263,1.00899994,-1.60000002,-1.60000002,-3,-0.200000003,0,0,3.0999999,3,2.5,0,0,0,1.697056e-05,1.697056e-05,0,0,-0.0430538096,-0.136512905,-0.258322865,-0.818422794,-0.258322865,0,-0,-0.819077432,0.00065461616,0,1457,1803,1465,1386,6,-6,21.6700001,0,0.0199999996,0.540000021,0,0,1,0.000212132014,0.000212132014
1.695399,1783678205.734490,28,-2.75409603,-2.90555286,-2.83038521,0,0.0489676408,0.0058097248,0.993952513,0.0406516194,0.0385159403,-0.0152856549,430.46701,991.849243,0,0.102000006,0.33489418,2.82038116,0.323157728,2.81148005,0.0117364526,0.00890111923,0.995980263,1.00899994,-1.60000002,-1.60000002,-3,-0.200000003,0,0,3.0999999,3,2.5,0,0,0,0,0,0,0,-0.0430538096,-0.136512905,-0.258322865,-0.818422794,-0.258322865,0,-0,-0.819077432,0.00065461616,0,1457,1803,1465,1386,6,-6,21.6700001,0,0.0199999996,0.540000021,0,0,1,-0,-0
1.755729,1783678205.794821,29,-2.75491858,-2.90472245,-2.8303566,0,0.0494583584,0.00572544057,0.994151473,-0.0152182449,-0.0656219199,0.00218005665,430.517029,991.849243,0,0.627000034,0.329969764,2.84803057,0.322351873,2.81220222,0.00761789083,0.035828352,0.995980263,1.00899994,-1.60000002,-1.60000002,-3,-0.200000003,0,0,3.0999999,3,2.5,0,0,0,5.09116835e-05,1.697056e-05,0,0,-0.0430538096,-0.136512905,-0.258322865,-0.818422794,-0.258322865,0,-0,-0.819077432,0.00065461616,0,1457,1803,1465,1386,6,-6,21.6700001,0,0.0199999996,0.540000021,0,0,1,0.000636396057,0.000212132014
1.817130,1783678205.856221,30,-2.75506091,-2.91133332,-2.83045387,0,0.0482609682,0.00549819972,0.994011879,0.0119962674,0.126313269,-0.0175697096,430.567017,991.849243,0,0.216000006,0.316918164,2.7795825,0.322261453,2.80583978,-0.00534328818,-0.0262572765,0.996015966,1,-1.60000002,-1.60000002,-3,-0.200000003,0,0,3.0999999,3,2.5,0,0,0,5.09116871e-05,5.09116871e-05,0,0,-0.0430538096,-0.136512905,-0.258322865,-0.818422794,-0.258322865,0,-0,-0.819077432,0.00065461616,0,1457,1803,1465,1386,6,-6,21.6700001,0,0.0199999996,0.540000021,0,0,1,0.000636396115,0.000636396115
1.847646,1783678205.886738,31,-2.75351501,-2.91171622,-2.83083725,0,0.0500131398,0.00564945536,0.994317293,0.0261944644,-0.0831073299,0.0103027299,430.617035,991.849243,0,0.815000057,0.3255364,2.87944579,0.323778927,2.80505371,0.00175747275,0.0743920803,0.995984197,1.00800002,-1.60000002,-1.60000002,-3,-0.200000003,0,0,3.0999999,3,2.5,0,0,0,1.697056e-05,-1.697056e-05,0,0,-0.0430538096,-0.136512905,-0.258322865,-0.818422794,-0.258322865,0,-0,-0.819077432,0.00065461616,0,1457,1803,1465,1386,6,-6,21.6700001,0,0.0199999996,0.540000021,0,0,1,0.000212132014,-0.000212132014
1.953866,1783678205.992958,32,-2.74923587,-2.91349363,-2.83078194,0,0.0493865311,0.00590915699,0.994493783,0.063908726,-0.0113153784,0.00276762247,430.667023,991.805603,0,0.397000015,0.340440333,2.84292102,0.32801646,2.80342054,0.0124238729,0.0395004749,0.996087432,0.982000053,-1.60000002,-1.60000002,-3,-0.200000003,0,0,3.0999999,3,2.5,0,0,0,1.697056e-05,-1.697056e-05,0,0,-0.0430538096,-0.136512905,-0.258322865,-0.818422794,-0.258322865,0,-0,-0.819077432,0.00065461616,0,1457,1803,1465,1386,6,-6,21.6700001,0,0.0199999996,0.540000021,0,0,1,0.000212132014,-0.000212132014
1.999359,1783678206.038451,33,-2.75001884,-2.91052508,-2.83096886,0,0.0485837683,0.00576066365,0.993862748,-0.0036148224,0.041624181,0.0125867594,430.71701,991.805603,0,0.0720000044,0.332096189,2.79855967,0.3272627,2.80657578,0.00483348966,-0.00801610947,0.995968342,1.01199996,-1.60000002,-1.60000002,-3,-0.200000003,0,0,3.0999999,3,2.5,4.15188078e-05,-6.49313661e-05,2.09426889e-05,5.09537022e-05,1.6904849e-05,0,0,-0.0430538096,-0.136512905,-0.258322865,-0.818422794,-0.258322865,0,-0,-0.819077432,0.00065461616,0,1457,1803,1465,1386,6,-6,21.6700001,0,0.0199999996,0.540000021,0,0,1,0.000636396057,0.000212132014
2.030241,1783678206.069333,34,-2.74796295,-2.91498351,-2.83095741,0,0.0478713512,0.00570026878,0.994256675,0.013431753,-0.058935944,0.0275967158,430.767029,991.805603,0,0.584000051,0.328484386,2.75649643,0.329341531,2.80226898,-0.000857144594,-0.0457725525,0.995980263,1.00899994,-1.60000002,-1.60000002,-3,-0.200000003,0,0,3.0999999,3,2.5,0,0,0,3.39411199e-05,3.39411199e-05,0,0,-0.0430538096,-0.136512905,-0.258322865,-0.818422794,-0.258322865,0,-0,-0.819077432,0.00065461616,0,1457,1803,1465,1386,6,-6,21.6700001,0,0.0199999996,0.540000021,0,0,1,0.000424264028,0.000424264028
2.091201,1783678206.130292,35,-2.74706984,-2.91873145,-2.83124161,0,0.0482521169,0.00583636994,0.994133532,0.0629020408,0.0458854176,0.00788077433,430.817017,991.805603,0,0.173000008,0.336368799,2.77872872,0.330206335,2.79841638,0.00616246462,-0.0196876526,0.995980263,1.00899994,-1.60000002,-1.60000002,-3,-0.200000003,0,0,3.0999999,3,2.5,0,0,0,0,0,0,0,-0.0430538096,-0.136512905,-0.258322865,-0.818422794,-0.258322865,0,-0,-0.819077432,0.00065461616,0,1457,1803,1465,1386,6,-6,21.6700001,0,0.0199999996,0.540000021,0,0,1,-0,-0
2.153378,1783678206.192470,36,-2.74684477,-2.91816354,-2.83146095,0,0.0486985967,0.00488736993,0.994224787,0.0139728663,-0.000554701313,0.014116847,430.867035,991.805603,0,0.80400002,0.281650007,2.80415654,0.33065328,2.79888391,-0.0490032732,0.00527262688,0.995980263,1.00899994,-1.60000002,-1.60000002,-3,-0.200000003,0,0,3.0999999,3,2.5,0,0,0,1.697056e-05,-1.697056e-05,0,0,-0.0430538096,-0.136512905,-0.258322865,-0.818422794,-0.258322865,0,-0,-0.819077432,0.00065461616,0,1457,1803,1465,1386,6,-6,21.6700001,0,0.0199999996,0.540000021,0,0,1,0.000212132014,-0.000212132014
2.215744,1783678206.254836,37,-2.74471021,-2.92639303,-2.8318882,0,0.0477230735,0.00536062801,0.994268835,0.0370772332,-0.0376866832,-0.0218702964,430.917023,991.86908,0,0.361000031,0.30890882,2.7479434,0.332686394,2.79084826,-0.0237775743,-0.0429048538,0.995980263,1.00899994,-1.60000002,-1.60000002,-3,-0.200000003,0,0,3.0999999,3,2.5,0,0,0,5.09116871e-05,5.09116871e-05,0,0,-0.0430538096,-0.136512905,-0.258322865,-0.818422794,-0.258322865,0,-0,-0.819077432,0.00065461616,0,1457,1803,1465,1386,6,-6,21.6700001,0,0.0199999996,0.540000021,0,0,1,0.000636396115,0.000636396115
2.278329,1783678206.317421,38,-2.74266624,-2.92371082,-2.83238602,0,0.0488407798,0.00583076943,0.994075537,-0.023392655,-0.0133045921,0.00573210884,430.96701,991.86908,0,0.088000007,0.33606568,2.81273818,0.334629148,2.79327989,0.00143653154,0.0194582939,0.99598819,1.00699997,-1.60000002,-1.60000002,-3,-0.200000003,0,0,3.0999999,3,2.5,-5.29539611e-05,-5.7329089e-05,4.92668187e-05,-1.70238854e-05,1.69128289e-05,0,0,-0.0430538096,-0.136512905,-0.258322865,-0.818422794,-0.258322865,0,-0,-0.819077432,0.00065461616,0,1457,1803,1465,1386,6,-6,21.6700001,0,0.0199999996,0.540000021,0,0,1,-0.000212132014,0.000212132014
2.309302,1783678206.348394,39,-2.74590397,-2.92775369,-2.83255768,0,0.0482571796,0.00540047744,0.995273829,0.000213942491,-0.0504088625,0.017056223,431.017029,991.86908,0,0.558000028,0.310890883,2.77584767,0.331479818,2.78936934,-0.0205889344,-0.0135216713,0.995984197,1.00800002,-1.60000002,-1.60000002,-3,-0.200000003,0,0,3.0999999,3,2.5,0,0,0,3.39411199e-05,0,0,0,-0.0430538096,-0.136512905,-0.258322865,-0.818422794,-0.258322865,0,-0,-0.819077432,0.00065461616,0,1457,1803,1465,1386,6,-6,21.6700001,0,0.0199999996,0.540000021,0,0,1,0.000424264028,-0
2.372598,1783678206.411690,40,-2.74465227,-2.93544054,-2.83276176,0,0.0481440015,0.00602790527,0.995733738,0.000939429738,0.0494500957,-0.0276750978,431.067017,991.86908,0,0.138000011,0.346849084,2.76806045,0.332591325,2.78168297,0.0142577589,-0.0136225224,0.995980263,1.00899994,-1.60000002,-1.60000002,-3,-0.200000003,0,0,3.0999999,3,2.5,0,0,0,0,0,0,0,-0.0430538096,-0.136512905,-0.258322865,-0.818422794,-0.258322865,0,-0,-0.819077432,0.00065461616,0,1457,1803,1465,1386,6,-6,21.6700001,0,0.0199999996,0.540000021,0,0,1,-0,-0
2.447325,1783678206.486417,41,-2.74918079,-2.93589091,-2.83296394,0,0.0489054956,0.00599679211,0.994927168,-0.000891283154,0.0119027682,0.0013173013,431.117035,991.86908,0,0.739000022,0.345338553,2.81404948,0.328050852,2.78104496,0.0172877014,0.0330045223,0.995980263,1.00899994,-1.60000002,-1.60000002,-3,-0.200000003,0,0,3.0999999,3,2.5,0,0,0,3.39411199e-05,3.39411199e-05,0,0,-0.0430538096,-0.136512905,-0.258322865,-0.818422794,-0.258322865,0,-0,-0.819077432,0.00065461616,0,1457,1803,1465,1386,6,-6,21.6700001,0,0.0199999996,0.540000021,0,0,1,0.000424264028,0.000424264028
2.481401,1783678206.520493,42,-2.74960995,-2.93326163,-2.83291245,0,0.0489247851,0.0057424414,0.994572461,0.0431533717,0.0914535373,0.000559295528,431.167023,991.833374,0,0.323000014,0.330809504,2.81616426,0.327678561,2.78367662,0.00313094258,0.0324876308,0.99598819,1.00699997,-1.60000002,-1.60000002,-3,-0.200000003,0,0,3.0999999,3,2.5,0,0,0,0,0,0,0,-0.0430538096,-0.136512905,-0.258322865,-0.818422794,-0.258322865,0,-0,-0.819077432,0.00065461616,0,1457,1803,1465,1386,6,-6,21.6700001,0,0.0199999996,0.540000021,0,0,1,-0,-0
2.557589,1783678206.596681,43,-2.75187755,-2.93199277,-2.83343315,0,0.0488886796,0.00567945698,0.994695425,0.057488855,0.0261459723,0.0202714093,431.21701,991.833374,0,0.0890000015,0.327140719,2.81374288,0.325417042,2.78496671,0.00172367692,0.0287761688,0.996206403,0.951999962,-1.60000002,-1.60000002,-3,-0.200000003,0,0,3.0999999,3,2.5,-3.19182873e-05,-2.00557715e-05,3.59344485e-05,1.69401737e-05,5.08925914e-05,0,0,-0.0430538096,-0.136512905,-0.258322865,-0.818422794,-0.258322865,0,-0,-0.819077432,0.00065461616,0,1457,1803,1465,1386,6,-6,21.6700001,0,0.0199999996,0.540000021,0,0,1,0.000212132014,0.000636396057
2.618889,1783678206.657981,44,-2.75318289,-2.92594028,-2.83323288,0,0.049291309,0.00528080482,0.994498014,-0.0218248554,-0.0586254634,0.00147086754,431.267029,991.833374,0,0.513000011,0.304238915,2.83744669,0.324198425,2.79094148,-0.0199595094,0.0465052128,0.995980263,1.00899994,-1.60000002,-1.60000002,-3,-0.200000003,0,0,3.0999999,3,2.5,0,0,0,3.39411272e-05,6.78822471e-05,0,0,-0.0430538096,-0.136512905,-0.258322865,-0.818422794,-0.258322865,0,-0,-0.819077432,0.00065461616,0,1457,1803,1465,1386,6,-6,21.6700001,0,0.0199999996,0.540000021,0,0,1,0.000424264115,0.000848528114
2.681517,1783678206.720609,45,-2.75374603,-2.92621136,-2.83349991,0,0.0498065203,0.0056312196,0.994169712,0.00342755858,0.0383879095,-0.0134047791,431.317017,991.833374,0,0.102000006,0.32453379,2.86799526,0.323551118,2.79054618,0.000982671976,0.0774490833,0.995980263,1.00899994,-1.60000002,-1.60000002,-3,-0.200000003,0,0,3.0999999,3,2.5,0,0,0,-5.09116871e-05,5.09116871e-05,0,0,-0.0430538096,-0.136512905,-0.258322865,-0.818422794,-0.258322865,0,-0,-0.819077432,0.00065461616,0,1457,1803,1465,1386,6,-6,21.6700001,0,0.0199999996,0.540000021,0,0,1,-0.000636396115,0.000636396115
2.713528,1783678206.752620,46,-2.75259042,-2.92063546,-2.8340435,0,0.0484078042,0.00550685544,0.994718194,0.0115732169,-0.0831640437,-0.015512377,431.367035,991.833374,0,0.704000056,0.31719172,2.7860496,0.324741036,2.79647517,-0.00754931569,-0.0104255676,0.995980263,1.00899994,-1.60000002,-1.60000002,-3,-0.200000003,0,0,3.0999999,3,2.5,0,0,0,0,0,0,0,-0.0430538096,-0.136512905,-0.258322865,-0.818422794,-0.258322865,0,-0,-0.819077432,0.00065461616,0,1457,1803,1465,1386,6,-6,21.6700001,0,0.0199999996,0.540000021,0,0,1,-0,-0
2.775261,1783678206.814353,47,-2.75360155,-2.92669845,-2.83373451,0,0.0482621901,0.00582309347,0.994371891,-0.0118331509,0.00693386048,0.00637989771,431.417023,991.873047,0,0.290000021,0.335523218,2.77864289,0.323651761,2.79041743,0.0118714571,-0.0117745399,0.995980263,1.00899994,-1.60000002,-1.60000002,-3,-0.200000003,0,0,3.0999999,3,2.5,0,0,0,0,3.39411199e-05,0,0,-0.0430538096,-0.136512905,-0.258322865,-0.818422794,-0.258322865,0,-0,-0.819077432,0.00065461616,0,1457,1803,1465,1386,6,-6,21.6700001,0,0.0199999996,0.540000021,0,0,1,-0,0.000424264028
2.837017,1783678206.876109,48,-2.75486207,-2.92667484,-2.8341713,0,0.0494787283,0.00564070046,0.994899333,-0.00330995396,0.01679934,-0.0018405281,431.46701,991.873047,0,0.877000034,0.324841797,2.84706521,0.32242918,2.79016495,0.00241261721,0.0569002628,0.995976269,1.00999999,-1.60000002,-1.60000002,-3,-0.200000003,0,0,3.0999999,3,2.5,-5.96433892e-05,0.000104332124,1.73950211e-05,3.38815953e-05,3.40452425e-05,0,0,-0.0430538096,-0.136512905,-0.258322865,-0.818422794,-0.258322865,0,-0,-0.819077432,0.00065461616,0,1457,1803,1465,1386,6,-6,21.6700001,0,0.0199999996,0.540000021,0,0,1,0.000424264028,0.000424264028
2.899514,1783678206.938606,49,-2.7544663,-2.92812061,-2.8338604,0,0.0482033156,0.00628702296,0.995351136,0.0500275008,-0.0489984229,-0.0119477259,431.517029,991.873047,0,0.474000037,0.361897528,2.77252483,0.322677284,2.78901434,0.0392202437,-0.0164895058,0.995984197,1.00800002,-1.60000002,-1.60000002,-3,-0.200000003,0,0,3.0999999,3,2.5,0,0,0,-1.697056e-05,-1.697056e-05,0,0,-0.0430538096,-0.136512905,-0.258322865,-0.818422794,-0.258322865,0,-0,-0.819077432,0.00065461616,0,1457,1803,1465,1386,6,-6,21.6700001,0,0.0199999996,0.540000021,0,0,1,-0.000212132014,-0.000212132014
2.961273,1783678207.000365,50,-2.75374436,-2.93696761,-2.83415413,0,0.048751004,0.00551291369,0.994820595,0.00612648483,-0.0190146547,0.003483098,431.567017,991.873047,0,0.0790000036,0.317507952,2.80548191,0.3235811,2.77999878,-0.00607314706,0.0254831314,0.995980263,1.00899994,-1.60000002,-1.60000002,-3,-0.200000003,0,0,3.0999999,3,2.5,0,0,0,-1.697056e-05,1.697056e-05,0,0,-0.0430538096,-0.136512905,-0.258322865,-0.818422794,-0.258322865,0,-0,-0.819077432,0.00065461616,0,1457,1803,1465,1386,6,-6,21.6700001,0,0.0199999996,0.540000021,0,0,1,-0.000212132014,0.000212132014
3.024690,1783678207.063782,51,-2.7517271,-2.93529177,-2.8338356,0,0.0478828438,0.00604193471,0.99431318,0.0413446054,-0.0912102908,-0.0162233114,431.617035,991.873047,0,0.658000052,0.348152965,2.7569952,0.325482845,2.7818768,0.02267012,-0.0248816013,0.995980263,1.00899994,-1.60000002,-1.60000002,-3,-0.200000003,0,0,3.0999999,3,2.5,0,0,0,-3.39411199e-05,3.39411199e-05,0,0,-0.0430538096,-0.136512905,-0.258322865,-0.818422794,-0.258322865,0,-0,-0.819077432,0.00065461616,0,1457,1803,1465,1386,6,-6,21.6700001,0,0.0199999996,0.540000021,0,0,1,-0.000424264028,0.000424264028
3.056296,1783678207.095388,52,-2.75288296,-2.94597316,-2.83398819,0,0.048341278,0.00584076764,0.994715214,0.0269763637,0.0723246187,0.00518091395,431.667023,991.805603,0,0.243000016,0.336425424,2.78222966,0.32437098,2.77105165,0.0120544434,0.0111780167,0.996087432,0.982000053,-1.60000002,-1.60000002,-3,-0.200000003,0,0,3.0999999,3,2.5,0,0,0,0,0,0,0,-0.0430538096,-0.136512905,-0.258322865,-0.818422794,-0.258322865,0,-0,-0.819077432,0.00065461616,0,1457,1803,1465,1386,6,-6,21.6700001,0,0.0199999996,0.540000021,0,0,1,-0,-0
3.117582,1783678207.156674,53,-2.75228119,-2.93670177,-2.83433342,0,0.0487658121,0.00624339562,0.99496609,-0.000987773761,-0.00786696468,-0.0380395427,431.71701,991.805603,0,0.865000069,0.359525353,2.80591083,0.324880719,2.7802639,0.0346446335,0.025646925,0.995984197,1.00800002,-1.60000002,-1.60000002,-3,-0.200000003,0,0,3.0999999,3,2.5,1.58339753e-05,-0.000100231693,-2.69508364e-05,-1.69545838e-05,1.6869426e-05,0,0,-0.0430538096,-0.136512905,-0.258322865,-0.818422794,-0.258322865,0,-0,-0.819077432,0.00065461616,0,1457,1803,1465,1386,6,-6,21.6700001,0,0.0199999996,0.540000021,0,0,1,-0.000212132014,0.000212132014
3.180600,1783678207.219692,54,-2.76000452,-2.88306904,-2.81767654,0,0.0571899898,-0.00425162725,0.987838149,0.021802105,0.771430194,2.65722513,431.767029,991.805603,0,0.428000033,-0.246597871,3.31335759,0.3195723,2.83206511,-0.566170156,0.481292486,0.995980263,1.00899994,-1.60000002,-1.60000002,-3,-0.200000003,0,0,3.0999999,3,2.5,0,0,0,1.697056e-05,1.697056e-05,0,0,-0.0430538096,-0.136512905,-0.258322865,-0.818422794,-0.258322865,0,-0,-0.819077432,0.00065461616,0,1457,1803,1465,1386,6,-6,21.6700001,0,0.0199999996,0.540000021,0,0,1,0.000212132014,0.000212132014
3.242016,1783678207.281108,55,-2.75611663,-2.91252398,-2.84104919,0,0.0661533028,0.0128446901,0.99076879,0.0138029829,-1.32392597,-1.25798798,431.817017,991.805603,0,0.075000003,0.74276191,3.81963015,0.319396853,2.80024052,0.423365057,1.01938963,0.995777845,1.06000006,-1.60000002,-1.60000002,-3,-0.200000003,0,0,3.0999999,3,2.5,0,0,0,1.697056e-05,1.697056e-05,0,0,-0.0430538096,-0.136512905,-0.258322865,-0.818422794,-0.258322865,0,-0,-0.819077432,0.00065461616,0,1457,1803,1465,1386,6,-6,21.6700001,0,0.0199999996,0.540000021,0,0,1,0.000212132014,0.000212132014
3.304062,1783678207.343154,56,-2.74813747,-2.93386626,-2.84363747,0,0.0960278511,0.0155414492,0.993352592,0.399098665,0.015562132,0.458256781,431.867035,991.805603,0,0.661000013,0.896345139,5.52098036,0.326872051,2.77214193,0.569473088,2.74883842,0.995976269,1.00999999,-1.60000002,-1.60000002,-3,-0.200000003,0,0,3.0999999,3,2.5,0,0,0,-1.697056e-05,-1.697056e-05,0,0,-0.0430538096,-0.136512905,-0.258322865,-0.818422794,-0.258322865,0,-0,-0.819077432,0.00065461616,0,1457,1803,1465,1386,6,-6,21.6700001,0,0.0199999996,0.540000021,0,0,1,-0.000212132014,-0.000212132014
3.367104,1783678207.406196,57,-2.78599548,-2.97077847,-2.84446716,0,0.0737124756,-0.00519208098,0.997440875,0.693596542,-1.79503667,1.14592612,431.917023,991.924622,0,0.227000013,-0.298244894,4.22650909,0.293682486,2.74032211,-0.591927409,1.48618698,0.995984197,1.00800002,-1.60000002,-1.60000002,-3,-0.200000003,0,0,3.0999999,3,2.5,0,0,0,-5.09116871e-05,-5.09116871e-05,0,0,-0.0430538096,-0.136512905,-0.258322865,-0.818422794,-0.258322865,0,-0,-0.819077432,0.00065461616,0,1457,1803,1465,1386,6,-6,21.6700001,0,0.0199999996,0.540000021,0,0,1,-0.000636396115,-0.000636396115
3.429851,1783678207.468943,58,-2.88625884,-2.98428226,-2.81264496,0,-0.0931870863,0.00890387036,0.998181581,-1.21510947,-5.43618631,9.62052631,431.96701,991.924622,0,0.837000012,0.511070013,-5.3332839,0.189750582,2.76534081,0.321319431,-8.09862518,0.995980263,1.00899994,-1.60000002,-1.60000002,-3,-0.200000003,0,0,3.0999999,3,2.5,0,0,0,3.39411199e-05,0,0,0,-0.0430538096,-0.136512905,-0.258322865,-0.818422794,-0.258322865,0,-0,-0.819077432,0.00065461616,0,1457,1803,1465,1386,6,-6,21.6700001,0,0.0199999996,0.540000021,0,0,1,0.000424264028,-0
3.460673,1783678207.499765,59,-2.81734872,-3.12282515,-2.85968399,0,0.00656466745,-0.0154349497,0.966480374,-1.09897089,3.18728757,-6.35664892,432.017029,991.924622,0,0.453000009,-0.914951146,0.389117062,0.264689416,2.60313463,-1.17964053,-2.21401763,0.995984197,1.00800002,-1.60000002,-1.60000002,-3,-0.200000003,0,0,3.0999999,3,2.5,0,0,0,-1.697056e-05,5.09116835e-05,0,0,-0.0430538096,-0.136512905,-0.258322865,-0.818422794,-0.258322865,0,-0,-0.819077432,0.00065461616,0,1457,1803,1465,1386,6,-6,21.6700001,0,0.0199999996,0.540000021,0,0,1,-0.000212132014,0.000636396057
3.523309,1783678207.562400,60,-2.75268841,-2.9255197,-2.83309937,0,0.0478039458,0.0119483881,0.993659198,-2.72487283,-1.80801201,0.82164216,432.067017,991.924622,0,0.0940000042,0.688927591,2.75412011,0.323105961,2.7917037,0.36582163,-0.0375835896,0.995881081,1.03399992,-1.60000002,-1.60000002,-3,-0.200000003,0,0,3.0999999,3,2.5,-0.00471388781,0.00890790951,0.000809955643,9.69492175e-05,7.70930346e-05,0,0,-0.0430538096,-0.136512905,-0.258322865,-0.818422794,-0.258322865,0,-0,-0.819077432,0.00065461616,0,1457,1803,1465,1386,6,-6,21.6700001,0,0.0199999996,0.540000021,0,0,1,0.00127279223,0.000848528231
3.585533,1783678207.624625,61,-2.63466835,-3.09227633,-2.81204605,0,0.0347876288,0.0221217778,0.998696148,1.10294354,-1.32878923,-1.64917207,432.117035,991.924622,0,0.65200001,1.26893175,1.99449122,0.439301133,2.62733364,0.829630613,-0.632842422,0.995984197,1.00800002,-1.60000002,-1.60000002,-3,-0.200000003,0,0,3.0999999,3,2.5,0,0,0,3.39411199e-05,0.000101823367,0,0,-0.0430538096,-0.136512905,-0.258322865,-0.818422794,-0.258322865,0,-0,-0.819077432,0.00065461616,0,1457,1803,1465,1386,6,-6,21.6700001,0,0.0199999996,0.540000021,0,0,1,0.000424264028,0.00127279211
3.646442,1783678207.685534,62,-2.69041204,-3.12897468,-2.84482956,0,0.0667241365,0.0186113007,0.997739613,3.37950683,-1.15570104,1.17595935,432.167023,991.972229,0,0.244000018,1.06864095,3.82531238,0.384140164,2.58310556,0.684500813,1.24220681,0.995984197,1.00800002,-1.60000002,-1.60000002,-3,-0.200000003,0,0,3.0999999,3,2.5,0,0,0,1.69705545e-05,0.000118793934,0,0,-0.0430538096,-0.136512905,-0.258322865,-0.818422794,-0.258322865,0,-0,-0.819077432,0.00065461616,0,1457,1803,1465,1386,6,-6,21.6700001,0,0.0199999996,0.540000021,0,0,1,0.000212131941,0.00148492423
3.706525,1783678207.745617,63,-2.88533998,-3.20558977,-2.82212448,0,0.0379476398,0.00400552992,0.991087019,-2.12288213,1.16048837,1.80044937,432.21701,991.972229,0,0.779000044,0.231562629,2.19270372,0.191794813,2.51281667,0.0397678167,-0.320112944,0.995821476,1.04899991,-1.60000002,-1.60000002,-3,-0.200000003,0,0,3.0999999,3,2.5,0.121224478,-0.0431951359,0.115490168,0.0035944588,0.00274312613,0,0,-0.00346729439,-0.00278843776,-0.0208037663,-0.0167294964,-0.0208037663,0,-0,-0.016730627,1.1310899e-06,0,1425,1896,1460,1392,6,-6,21.6700001,0,0.0199999996,0.540000021,0,0,1,0.00275771646,-0.00148492435
3.768633,1783678207.807724,64,-2.80495787,-3.17315435,-2.79439545,0,0.0471059009,-0.0112709953,0.990344465,-0.372925967,2.17554331,0.674570918,432.267029,991.972229,0,0.882000029,-0.652048469,2.72305489,0.276081413,2.54318976,-0.928129911,0.179865122,0.995972216,1.01100004,-1.60000002,-1.60000002,-3,-0.200000003,0,0,3.0999999,3,2.5,0.0875092745,-0.0831402987,0.124926753,0.00915449206,-0.0053235963,0,0,-0.00915449206,0.0053235963,-0.0549269542,0.0319411568,-0.0549269542,0,-0,0.0319415778,-4.20423817e-07,0,1414,1883,1459,1393,6,-6,21.6700001,0,0.0199999996,0.540000021,0,0,1,0.00212132023,-0.000848527998
3.831974,1783678207.871065,65,-2.69131279,-3.04965925,-2.7964325,0,0.0706341863,0.0265427753,0.976160645,-0.974936068,0.0612817667,-1.71923208,432.317017,991.972229,0,0.112000003,1.5575453,4.13713932,0.381972194,2.66237116,1.17557311,1.47476816,0.9965837,0.856999993,-1.60000002,-1.60000002,-3,-0.200000003,0,0,3.0999999,3,2.5,0.141582087,-0.217580378,0.157555044,0.0109191472,-0.00691014901,0,0,-0.0106535181,0.00648255087,-0.0639211088,0.0388891511,-0.0639211088,0,-0,0.0388953052,-6.15401859e-06,0,1438,1887,1461,1391,6,-6,21.6700001,0,0.0199999996,0.540000021,0,0,1,0.00339411269,-0.00127279223
3.895981,1783678207.935072,66,-2.70509839,-2.96329284,-2.82485008,0,0.0744157806,-0.0269610062,0.99620384,1.91628838,1.12555671,0.403527826,432.367035,991.972229,0,0.580000043,-1.55025995,4.27046537,0.380338669,2.74735713,-1.93059862,1.52310824,0.995785773,1.05799997,-1.60000002,-1.60000002,-3,-0.200000003,0,0,3.0999999,3,2.5,0.178952545,-0.00955912843,0.105909541,0.0158570595,-0.014999236,0,0,-0.0156677272,0.0149891227,-0.0940063596,0.089917466,-0.0940063596,0,-0,0.0899347365,-1.726972e-05,0,1428,1865,1461,1391,6,-6,21.6700001,0,0.0199999996,0.540000021,0,0,1,0.00403050845,-0.000636396348
3.927214,1783678207.966306,67,-2.71162534,-2.93939209,-2.82504082,0,0.0250337161,0.0324536785,0.993767321,-1.51540613,0.791347861,-0.0745692849,432.417023,991.900818,0,0.213000014,1.87045634,1.44224834,0.359596342,2.78307176,1.51085997,-1.34082341,0.995976269,1.00999999,-1.60000002,-1.60000002,-3,-0.200000003,0,0,3.0999999,3,2.5,0.1190954,-0.130239815,0.144179091,0.0174108241,-0.0115781017,0,0,-0.0172905382,0.0114465598,-0.103743225,0.0686489865,-0.103743225,0,-0,0.0686793625,-3.03724519e-05,0,1423,1893,1460,1392,6,-6,21.6700001,0,0.0199999996,0.540000021,0,0,1,0.00275771646,-0.000212131883
4.021854,1783678208.060946,68,-2.69788027,-2.98134851,-2.86612129,0,0.132650882,-0.0548828728,1.00942647,2.24976587,-1.43865263,-3.31961441,432.46701,991.900818,0,0.641000032,-3.11212754,7.47554588,0.396920502,2.71196389,-3.50904799,4.76358223,0.995012939,1.25300002,-1.60000002,-1.60000002,-3,-0.200000003,0,0,3.0999999,3,2.5,0.120252535,-0.0535060689,0.0815837756,0.0187177733,-0.0163856111,0,0,-0.0185536593,0.0162425861,-0.111321956,0.0974115953,-0.111321956,0,0,0.0974555165,-4.3923359e-05,0,1453,1864,1463,1388,6,-6,21.6700001,0,0.0199999996,0.540000021,0,0,1,0.00212132023,0.000424264173
4.052463,1783678208.091555,69,-2.76212335,-3.03019118,-2.87491608,0,-0.0603148714,-0.0840694457,1.0233568,0.0801756382,-2.28153491,-0.69735384,432.517029,991.900818,0,0.386000007,-4.69634056,-3.36171317,0.335424244,2.71131372,-5.03176498,-6.07302666,0.995976269,1.00999999,-1.60000002,-1.60000002,-3,-0.200000003,0,0,3.0999999,3,2.5,-0.0789930448,0.0770078599,0.0713277385,0.0187642705,-0.0145156886,0,0,-0.0188440531,0.0145934662,-0.113064319,0.0875013024,-0.113064319,0,-0,0.0875607952,-5.94908961e-05,-0,1450,1884,1460,1392,6,-6,21.6700001,0,0.0199999996,0.540000021,0,0,1,0.0108187338,-0.00190918893
4.098530,1783678208.137622,70,-2.88868475,-3.19572711,-2.86633873,0,-0.039026022,-0.0259589609,0.98667264,-0.00645107776,-10.359313,-6.55889082,432.567017,991.900818,0,0.088000007,-1.50708127,-2.26426578,0.193276152,2.53449273,-1.70035744,-4.79875851,0.997259498,0.686999977,-1.60000002,-1.60000002,-3,-0.200000003,0,0,3.0999999,3,2.5,-0.476807743,0.140086412,0.18325986,0.0172426067,-0.00826799776,0,0,-0.018178083,0.00853933953,-0.109068498,0.0511651374,-0.109068498,0,0,0.0512360372,-7.09009837e-05,-0,1487,1883,1463,1388,6,-6,21.6700001,0,0.0199999996,0.540000021,0,0,1,0.0125157889,0.00487903692
4.192905,1783678208.231997,71,-2.83842683,-2.98486948,-2.86603165,0,0.278902978,0.082725361,1.01088464,0.633176923,0.126611948,1.36691785,432.617035,991.900818,0,0.583000004,4.67835331,15.3752241,0.220956549,2.68117261,4.45739698,12.6940517,0.995980263,1.00899994,-1.60000002,-1.60000002,-3,-0.200000003,0,0,3.0999999,3,2.5,0.0997586921,-0.00268267095,0.105159082,0.0164118782,-0.00520833302,0,0,-0.0163112208,0.00520562613,-0.0978673249,0.031156633,-0.0978673249,0,0,0.0312337577,-7.71253108e-05,-0,1461,1869,1462,1389,6,-6,21.6700001,0,0.0199999996,0.540000021,0,0,1,0.000848528114,0.000424264115
4.224774,1783678208.263866,72,-2.77418852,-2.93992162,-2.83571243,0,0.0251924023,-0.032156609,0.985182524,-0.699133158,4.10307789,3.99456763,432.667023,991.91272,0,0.515000045,-1.86948514,1.46402943,0.311646372,2.782305,-2.1811316,-1.31827557,0.996087432,0.982000053,-1.60000002,-1.60000002,-3,-0.200000003,0,0,3.0999999,3,2.5,0.193293408,-0.0637066811,0.131669432,0.0172211267,-0.00726613495,0,0,-0.017031312,0.00720357522,-0.102187872,0.0431379974,-0.102187872,0,-0,0.0432214513,-8.34534512e-05,0,1404,1890,1458,1394,6,-6,21.6700001,0,0.0199999996,0.540000021,0,0,1,0.00318198046,0.00148492446
4.287761,1783678208.326853,73,-2.85355568,-3.13117409,-2.84132195,0,0.0900625661,-0.01847177,1.00135636,2.86832833,-9.84248924,-2.47151923,432.71701,991.91272,0,0.770000041,-1.05680108,5.13851738,0.229057029,2.57530618,-1.28585815,2.5632112,0.9958691,1.03699994,-1.60000002,-1.60000002,-3,-0.200000003,0,0,3.0999999,3,2.5,-0.163931802,0.104379214,0.123640768,0.0163419787,-0.00630459329,0,0,-0.0165119767,0.00641283439,-0.0990718603,0.0383869968,-0.0990718603,0,0,0.0384770073,-9.00089653e-05,-0,1515,1857,1463,1389,6,-6,21.6700001,0,0.0199999996,0.540000021,0,0,1,0.00318198046,0.00148492446
4.350319,1783678208.389411,74,-2.80221605,-3.01850986,-2.82772446,0,0.0192555189,-0.0138720162,0.98185277,-1.30589283,6.81152058,3.06525803,432.767029,991.91272,0,0.690000057,-0.809444308,1.12339509,0.279462069,2.70491624,-1.08890641,-1.58152115,0.995980263,1.00899994,-1.60000002,-1.60000002,-3,-0.200000003,0,0,3.0999999,3,2.5,0.212047413,-0.0585591793,0.131957367,0.015434985,-0.0063011609,0,0,-0.0152210295,0.00624207454,-0.0913261771,0.0373560712,-0.0913261771,0,-0,0.0374524482,-9.63758503e-05,0,1372,1892,1459,1394,6,-6,21.6700001,0,0.0199999996,0.540000021,0,0,1,0.00106066023,0.00106066023
4.381141,1783678208.420233,75,-2.86068344,-3.17205405,-2.84136772,0,0.197839588,0.0681235045,0.998730183,1.36001205,-4.21442938,0.59059,432.817017,991.91272,0,0.088000007,3.90210772,11.17941,0.204440922,2.51648664,3.69766688,8.66292381,0.996706903,0.825999975,-1.60000002,-1.60000002,-3,-0.200000003,0,0,3.0999999,3,2.5,-0.0459791273,0.0437239259,0.131058946,0.0117736543,-0.00417411467,0,0,-0.0119842859,0.00431442773,-0.0719057173,0.0257851817,-0.0719057173,0,0,0.0258865654,-0.000101384358,-0,1497,1859,1463,1389,6,-6,21.6700001,0,0.0199999996,0.540000021,0,0,1,0.00148492423,0.000636396231
4.442451,1783678208.481542,76,-2.84211063,-3.09788442,-2.82701111,0,-0.117503554,-0.05909466,0.977016389,0.879343629,1.3215127,2.24827957,432.867035,991.91272,0,0.59800005,-3.461308,-6.84550428,0.250198394,2.65761137,-3.71150637,-9.50311565,0.995956361,1.0150001,-1.60000002,-1.60000002,-3,-0.200000003,0,0,3.0999999,3,2.5,0.0328005478,0.0527976602,0.162753999,0.0121637974,-0.00498304423,0,0,-0.0121305045,0.00503663393,-0.0727830231,0.0301137604,-0.0727830231,0,-0,0.0302198045,-0.00010604359,0,1401,1876,1458,1394,6,-6,21.6700001,0,0.0199999996,0.540000021,0,0,1,0.00381837692,0.00254558446
4.505198,1783678208.544290,77,-2.7845099,-3.06069422,-2.83814621,0,0.108703025,0.0389238819,1.01522434,-1.37377274,5.47575665,1.84246266,432.917023,991.916687,0,0.486000031,2.19565511,6.10708857,0.285111278,2.64244747,1.9105438,3.46464109,0.995980263,1.00899994,-1.60000002,-1.60000002,-3,-0.200000003,0,0,3.0999999,3,2.5,0.221625462,-0.115468897,0.0985263214,0.0106080491,-0.00364216301,0,0,-0.0103844292,0.00352565479,-0.0623065755,0.0210438706,-0.0623065755,0,-0,0.0211539287,-0.000110058536,0,1411,1888,1459,1393,6,-6,21.6700001,0,0.0199999996,0.540000021,0,0,1,0.00381837622,0.00212132023
4.598230,1783678208.637322,78,-2.81803584,-3.19917631,-2.84925842,0,0.103053123,0.0906748623,0.984475017,0.0260797739,-5.0373497,-3.48673749,432.96701,991.916687,0,0.574000001,5.2623682,5.95085239,0.235169813,2.50135899,5.02719831,3.44949341,0.995207012,1.204,-1.60000002,-1.60000002,-3,-0.200000003,0,0,3.0999999,3,2.5,-0.140293404,-0.0255467705,0.151649058,0.00935023837,-0.00380718615,0,0,-0.00951915141,0.00377642782,-0.0571149066,0.022544682,-0.0571149066,0,0,0.0226585679,-0.000113885115,-0,1499,1869,1462,1389,6,-6,21.6700001,0,0.0199999996,0.540000021,0,0,1,0.00212132023,0.00169705611
4.629110,1783678208.668202,79,-2.86642599,-3.14630628,-2.86466789,0,0.0310966596,-0.0376695357,0.991581798,1.13629675,-3.55631065,-1.70755422,433.017029,991.916687,0,0.36500001,-2.17558265,1.79495084,0.220506668,2.57389355,-2.39608932,-0.778942704,0.995980263,1.00899994,-1.60000002,-1.60000002,-3,-0.200000003,0,0,3.0999999,3,2.5,-0.0684292316,0.0996846631,0.13000764,0.00797107443,-0.00241581397,0,0,-0.00804011989,0.00251639588,-0.0482407212,0.0149812996,-0.0482407212,0,0,0.0150983753,-0.000117075913,-0,1465,1870,1462,1390,6,-6,21.6700001,0,0.0199999996,0.540000021,0,0,1,0.00445477292,0.00275771669
4.691770,1783678208.730862,80,-2.8484633,-3.11662388,-2.86096382,0,0.060185302,0.0564936921,0.978524566,0.423698306,-3.67493272,0.292840719,433.067017,991.916687,0,0.41200003,3.30422068,3.51377392,0.220361948,2.59792757,3.08385873,0.915846348,0.99725157,0.68900001,-1.60000002,-1.60000002,-3,-0.200000003,0,0,3.0999999,3,2.5,-0.104562514,0.0238678232,0.120914742,0.00779221952,-0.00163649069,0,0,-0.00802550092,0.00173044996,-0.0481530055,0.0102634756,-0.0481530055,0,0,0.0103826998,-0.000119224307,-0,1449,1861,1462,1390,6,-6,21.6700001,0,0.0199999996,0.540000021,0,0,1,0.00190918811,0.00148492411
4.753227,1783678208.792319,81,-2.80279541,-3.06283045,-2.87656593,0,0.0948163792,-0.0221133716,0.991586506,0.37350741,-0.333176494,-3.6084826,433.117035,991.916687,0,0.579000056,-1.27754152,5.4607172,0.280769557,2.6429112,-1.5583111,2.81780601,0.995980263,1.00899994,-1.60000002,-1.60000002,-3,-0.200000003,0,0,3.0999999,3,2.5,0.0140148709,-0.0428969339,0.166166827,0.00643578917,-0.00185775396,0,0,-0.00642164797,0.00181447098,-0.0385298878,0.0107659921,-0.0385298878,0,0,0.0108868256,-0.000120833967,0,1453,1875,1464,1387,6,-6,21.6700001,0,0.0199999996,0.540000021,0,0,1,0.000424264028,0.000424264028
4.785220,1783678208.824312,82,-2.8017509,-2.99596953,-2.88862228,0,0.0858148113,0.0820361376,0.99958533,-1.16267395,-0.326472163,0.766119242,433.167023,991.91272,0,0.127000004,4.69175959,4.89047337,0.257726431,2.71234369,4.43403339,2.17812967,0.995980263,1.00899994,-1.60000002,-1.60000002,-3,-0.200000003,0,0,3.0999999,3,2.5,0.0508524701,-0.0781809166,0.134083569,0.0077670631,-0.00164278282,0,0,-0.00771575281,0.00156389829,-0.0462945178,0.0092604924,-0.0462945178,0,-0,0.00938338973,-0.000122897283,0,1448,1881,1460,1393,6,-6,21.6700001,0,0.0199999996,0.540000021,0,0,1,0.00106066011,0.000212132087
4.848246,1783678208.887338,83,-2.83975053,-2.94962859,-2.89316559,0,0.0133129843,-0.0542404614,0.986252487,0.801562428,4.9077692,3.3293829,433.21701,991.91272,0,0.749000013,-3.14789772,0.772196531,0.251159936,2.77546096,-3.39905763,-2.00326443,0.995996118,1.005,-1.60000002,-1.60000002,-3,-0.200000003,0,0,3.0999999,3,2.5,0.0612925068,0.0480856299,0.0936028734,0.00729955733,-0.00149989943,0,0,-0.00723795826,0.00154822553,-0.0434277505,0.00916488469,-0.0434277505,0,-0,0.00928935315,-0.000124468424,0,1391,1874,1460,1393,6,-6,21.6700001,0,0.0199999996,0.540000021,0,0,1,0.00509116892,-0.000848527765
4.912326,1783678208.951418,84,-2.83468413,-2.90133119,-2.91412354,0,0.0931951553,0.0287733022,0.978467822,-0.0543613285,3.9988246,-2.59646726,433.267029,991.91272,0,0.405000031,1.68438232,5.43844461,0.236786261,2.80513096,1.44759607,2.63331366,0.995972216,1.01100004,-1.60000002,-1.60000002,-3,-0.200000003,0,0,3.0999999,3,2.5,0.093845278,-0.0216569789,0.146598548,0.00768563012,-0.000161899443,0,0,-0.00759075256,0.000140004238,-0.0455445163,0.000714944734,-0.0455445163,0,-0,0.00084002543,-0.000125080696,-0,1433,1875,1465,1386,6,-6,21.6700001,0,0.0199999996,0.540000021,0,0,1,0.00190918811,0.00106066011
4.974062,1783678209.013154,85,-2.856179,-2.92393303,-2.91716766,0,0.0964413583,0.0619875416,0.978752553,0.0881438851,-4.12514162,-4.45918655,433.317017,991.91272,0,0.407000005,3.62388587,5.616292,0.20908989,2.78315306,3.41479588,2.83313894,0.996476471,0.884000003,-1.60000002,-1.60000002,-3,-0.200000003,0,0,3.0999999,3,2.5,-0.0306901559,0.0243312754,0.0939918458,0.00810601935,-0.000450710475,0,0,-0.00820470043,0.000541886431,-0.0492282026,0.00312567572,-0.0492282026,0,0,0.00325131859,-0.000125642939,-0,1478,1863,1463,1389,6,-6,21.6700001,0,0.0199999996,0.540000021,0,0,1,0.00106066011,0.000212132087
5.036030,1783678209.075122,86,-2.89241576,-2.90970731,-2.90970612,0,0.0611718744,0.0549531691,0.938831449,-1.4195807,-7.46909332,-3.74405026,433.367035,991.91272,0,0.556000054,3.34990501,3.72162533,0.172111288,2.80367136,3.17779374,0.917953968,0.995980263,1.00899994,-1.60000002,-1.60000002,-3,-0.200000003,0,0,3.0999999,3,2.5,-0.0570824482,0.0289704483,0.201000959,0.00823287386,0.00171709503,0,0,-0.00829046965,-0.00168786384,-0.0497428179,-0.0102523742,-0.0497428179,0,0,-0.010127183,-0.000125191102,-0,1501,1883,1461,1391,6,-6,21.6700001,0,0.0199999996,0.540000021,0,0,1,0.00721248938,0.00212132046
5.098030,1783678209.137121,87,-2.84891129,-2.85767508,-2.92406845,0,0.0408326425,0.0795857385,0.990896761,-0.607119381,-0.706234932,-4.16975451,433.417023,991.91272,0,0.102000006,4.59196138,2.35213017,0.210778534,2.8614409,4.38118267,-0.509310722,0.995980263,1.00899994,-1.60000002,-1.60000002,-3,-0.200000003,0,0,3.0999999,3,2.5,-0.0316049829,-0.0431631282,0.148857147,0.00910185929,0.000659273763,0,0,-0.00913374871,-0.000702825375,-0.0548024923,-0.00434075342,-0.0548024923,0,0,-0.00421695225,-0.000123801277,-0,1452,1875,1465,1386,6,-6,21.6700001,0,0.0199999996,0.540000021,0,0,1,0.00127279211,0.000424264028
5.165843,1783678209.204935,88,-2.8481946,-2.87046647,-2.9244957,0,0.0782244802,0.0790623501,0.986678898,-1.802531,-2.75911355,-1.71081102,433.46701,991.91272,0,0.592000008,4.58130884,4.51853848,0.208912492,2.83884454,4.37239647,1.67969394,0.995381474,1.15999997,-1.60000002,-1.60000002,-3,-0.200000003,0,0,3.0999999,3,2.5,-0.0375639461,-0.035157524,0.126214281,0.00763190491,0.000942965038,0,0,-0.00767547917,-0.00098374777,-0.0460528731,-0.00602566916,-0.0460528731,0,0,-0.00590248685,-0.000123182544,-0,1470,1890,1463,1389,6,-6,21.6700001,0,0.0199999996,0.540000021,0,0,1,0.00403050845,0.00106066035
5.205842,1783678209.244934,89,-2.95551705,-2.7882092,-2.90924263,0,0.0525212809,-0.0240919497,1.03608489,0.792360663,-0.420828521,2.87514281,433.517029,991.91272,0,0.340000004,-1.33205152,2.90117455,0.127640024,2.92897105,-1.45969152,-0.0277965069,0.99598819,1.00699997,-1.60000002,-1.60000002,-3,-0.200000003,0,0,3.0999999,3,2.5,0.0678115711,0.0939320475,0.0930429026,0.00844105426,0.00386901107,0,0,-0.00837276783,-0.00377442152,-0.0502366051,-0.0227673929,-0.0502366051,0,-0,-0.0226465296,-0.000120862656,-0,1436,1871,1461,1391,6,-6,21.6700001,0,0.0199999996,0.540000021,0,0,1,0.00403050892,0.00233345269
5.268340,1783678209.307431,90,-2.86844444,-2.77777624,-2.88785934,0,-0.00411529373,0.0807269365,0.988976002,-0.600826919,-1.40270376,3.17011714,433.567017,991.91272,0,0.0700000003,4.66652441,-0.237625599,0.196660459,2.94798422,4.46986389,-3.18560982,0.997271478,0.683999956,-1.60000002,-1.60000002,-3,-0.200000003,0,0,3.0999999,3,2.5,-0.0322867781,-0.0809029192,0.180564493,0.0103759728,0.00340240821,0,0,-0.0103979371,-0.00350742368,-0.0623876229,-0.0211611707,-0.0623876229,0,-0,-0.0210445412,-0.000116628791,0,1420,1869,1461,1391,6,-6,21.6700001,0,0.0199999996,0.540000021,0,0,1,0.000636396057,-0.000212132014
5.331213,1783678209.370305,91,-2.88560557,-2.78250313,-2.90240669,0,0.0236365125,-0.0596295223,1.01091206,0.0941266418,3.35260582,-0.274359882,433.617035,991.91272,0,0.839000046,-3.3757298,1.33708668,0.206093475,2.94101286,-3.58182335,-1.60392618,0.995980263,1.00899994,-1.60000002,-1.60000002,-3,-0.200000003,0,0,3.0999999,3,2.5,-0.00632444955,0.0707373619,0.14554593,0.00706489524,0.00104512332,0,0,-0.00707127666,-0.000973749324,-0.042427659,-0.00595763698,-0.042427659,0,-0,-0.00584249571,-0.000115141476,-0,1414,1882,1461,1391,6,-6,21.6700001,0,0.0199999996,0.540000021,0,0,1,0.00487903692,0.00148492458
5.362435,1783678209.401527,92,-2.89576054,-2.79386568,-2.88625145,0,0.00807694718,0.017662894,0.998439193,-1.58297384,0.673331738,3.89436674,433.667023,991.91272,0,0.123000003,1.01348555,0.463415802,0.178272754,2.9328649,0.835212827,-2.46944904,0.996087432,0.982000053,-1.60000002,-1.60000002,-3,-0.200000003,0,0,3.0999999,3,2.5,0.00210502371,-0.0148592573,0.206185997,0.00742854457,0.00385938934,0,0,-0.0074264775,-0.00387398107,-0.0445588641,-0.0233562104,-0.0445588641,0,-0,-0.0232438855,-0.000112325593,-0,1428,1887,1460,1392,6,-6,21.6700001,0,0.0199999996,0.540000021,0,0,1,0.00424264045,-0.000848528347
5.425544,1783678209.464635,93,-2.87222528,-2.7491138,-2.88723373,0,0.113699816,0.00474319234,0.967752159,1.07076168,3.46689129,-0.883914232,433.71701,991.91272,0,0.209000006,0.280818522,6.70079994,0.204770386,2.95290399,0.0760481358,3.74789596,0.995984197,1.00800002,-1.60000002,-1.60000002,-3,-0.200000003,0,0,3.0999999,3,2.5,0.0340212137,-0.00922140665,0.151470736,0.00680641644,0.00164259388,0,0,-0.00677536754,-0.00166089716,-0.0406522043,-0.0100748744,-0.0406522043,0,0,-0.00996538252,-0.00010949179,0,1465,1876,1463,1389,6,-6,21.6700001,0,0.0199999996,0.540000021,0,0,1,0.00275771623,0.00106066
5.486214,1783678209.525306,94,-2.87028027,-2.82915068,-2.90264702,0,0.0734231398,-0.0286264513,1.03685296,1.15763211,-0.349969745,-0.360616803,433.767029,991.91272,0,0.301000029,-1.58147633,4.04901314,0.214238986,2.88323188,-1.79571533,1.16578126,0.995980263,1.00899994,-1.60000002,-1.60000002,-3,-0.200000003,0,0,3.0999999,3,2.5,-0.0966868401,0.0325907916,0.123078495,0.00491717085,0.000818155124,0,0,-0.0157413222,0.0605306551,-0.0944479331,0.362944514,-0.0944479331,0,0,0.363183916,-0.000239403147,0,1463,1889,1452,1402,6,-6,21.6700001,0,0.0199999996,0.540000021,0,0,1,0.0430628024,-0.0125157936
5.577701,1783678209.616793,95,-4.02205706,-2.30150652,-2.22982025,0,0.101264596,-0.0220268685,1.01909935,2.04238224,-2.67389655,-2.14275503,434.617035,991.91272,0,0.422000021,-1.23820138,5.67335129,-0.943571746,3.40644979,-0.294629633,2.26690149,0.995980263,1.00899994,-1.60000002,-1.60000002,-3,-0.200000003,0,0,3.0999999,3,2.5,-0.097359091,-0.0108236549,-0.0446819589,0.0130404076,-0.0597908646,0,0,-0.0131386425,0.059779942,-0.0788318515,0.358379006,-0.0788318515,0,0,0.358679652,-0.000300636806,0,1491,1871,1452,1401,6,-6,21.6700001,0,0.0199999996,0.540000021,0,0,1,0.0220617317,0.000424263068
5.608825,1783678209.647917,96,-4.18149567,-2.44384789,-2.29929352,0,0.0466673337,-0.0328353196,1.04814661,6.87750149,-5.58379698,0.240698874,434.667023,991.900818,0,0.0690000057,-1.79431975,2.5480864,-1.1024195,3.27508593,-0.691900253,-0.726999521,0.997434556,0.643000007,-1.60000002,-1.60000002,-3,-0.200000003,0,0,3.0999999,3,2.5,-0.0885629058,0.148904637,-0.0413999259,0.0134707885,-0.0473512411,0,0,-0.0136534749,0.0476377681,-0.0819208473,0.285470247,-0.0819208473,0,0,0.285826623,-0.000356382283,-0,1367,1828,1455,1398,6,-6,21.6700001,0,0.0199999996,0.540000021,0,0,1,0.0140007129,-0.00721248891
5.670837,1783678209.709929,97,-4.69675112,-2.55639386,-2.41927528,0,-0.0894744918,-0.0529559627,1.04074728,12.6136856,5.14263916,2.25359988,434.71701,991.900818,0,0.643000007,-2.91284823,-4.90739822,-1.61423004,3.1932373,-1.2986182,-8.10063553,0.995980263,1.00899994,-1.60000002,-1.60000002,-3,-0.200000003,0,0,3.0999999,3,2.5,-0.12104097,0.239394993,0.0445341133,0.0132804113,-0.0326944105,0,0,-0.0134025412,0.0329359584,-0.0804152489,0.197219625,-0.0804152489,0,0,0.197615743,-0.000396120478,-0,1367,1803,1452,1402,6,-6,21.6700001,0,0.0199999996,0.540000021,0,0,1,0.00700035598,-0.0235466547
5.733591,1783678209.772682,98,-5.20154762,-2.66050768,-2.58499146,0,-0.0331121273,-0.0707541406,0.9932217,14.2173185,5.62821293,3.47878265,434.767029,991.900818,0,0.223000005,-4.07469654,-1.90460253,-2.11638236,3.07656431,-1.95831418,-4.98116684,0.995984197,1.00800002,-1.60000002,-1.60000002,-3,-0.200000003,0,0,3.0999999,3,2.5,-0.137434483,0.0702702403,0.104863256,0.0117221512,-0.0263793338,0,0,-0.0118606854,0.0264501665,-0.0711641163,0.158276588,-0.0711641163,0,0,0.158701003,-0.000424411031,-0,1379,1803,1466,1384,6,-6,21.6700001,0,0.0199999996,0.540000021,0,0,1,0.000212134793,-0.0358503163
5.796621,1783678209.835712,99,-5.4967308,-2.56121016,-2.75262642,0,0.0688264817,0.0241970513,0.95482856,15.677002,7.02978706,-4.755229,434.817017,991.900818,0,0.316000015,1.45166612,4.12157679,-2.43434119,3.15213847,3.88600731,0.969438314,0.996162772,0.963,-1.60000002,-1.60000002,-3,-0.200000003,0,0,3.0999999,3,2.5,0.161651865,-0.17540063,0.103980273,0.0120348604,-0.0295191202,0,0,-0.0117135802,0.0291748028,-0.0702814832,0.174597844,-0.0702814832,0,-0,0.175048813,-0.000450969441,0,1468,1803,1460,1393,6,-6,21.6700001,0,0.0199999996,0.540000021,0,0,1,-0.0108187329,-0.0460326523
5.875407,1783678209.914499,100,-5.6737113,-2.70272875,-2.80241394,0,0.140657529,0.00762547087,0.992418289,9.54742241,-7.72292423,-1.50004351,434.867035,991.900818,0,0.398000032,0.440236419,8.06668568,-2.60867834,2.99392867,3.04891467,5.07275677,0.995976269,1.00999999,-1.60000002,-1.60000002,-3,-0.200000003,0,0,3.0999999,3,2.5,-0.0172811225,-0.0225783624,-0.177496195,0.00747726997,-0.0350948311,0,0,-0.00749472389,0.0350720286,-0.0449683443,0.209948033,-0.0449683443,0,0,0.210432172,-0.000484135846,0,1485,1803,1463,1388,6,-6,21.6700001,0,0.0199999996,0.540000021,0,0,1,-0.00445477385,-0.0328804664
5.906313,1783678209.945405,101,-5.38711977,-2.47239137,-2.77840614,0,0.0900219679,0.0588691272,1.05375803,-0.117772758,-4.0392108,3.11334157,434.917023,991.944458,0,0.0700000003,3.19755578,4.87532616,-2.33012986,3.23866343,5.52768564,1.63666272,0.996325552,0.921999991,-1.60000002,-1.60000002,-3,-0.200000003,0,0,3.0999999,3,2.5,0.129057959,-0.0857059062,-0.241680369,0.0117328539,-0.0323353559,0,0,-0.0114877028,0.0322000422,-0.0689262152,0.192682609,-0.0689262152,0,-0,0.19320026,-0.000517651206,0,1367,1889,1455,1398,6,-6,21.6700001,0,0.0199999996,0.540000021,0,0,1,-0.0159099028,0.0167584307
5.968155,1783678210.007247,102,-4.65967131,-2.49018216,-2.74640274,0,0.0306298286,0.0376722142,1.08033824,-1.66209698,3.2034359,0.655822158,434.96701,991.944458,0,0.541000009,1.99713814,1.62303317,-1.59753287,3.23368025,3.59467101,-1.61064708,0.995781898,1.05900002,-1.60000002,-1.60000002,-3,-0.200000003,0,0,3.0999999,3,2.5,0.0662213564,-0.124028765,0.0771682858,0.0101312567,-0.0381318182,0,0,-0.0100611281,0.0380004719,-0.0603667684,0.22745046,-0.0603667684,0,-0,0.228002831,-0.000552370097,0,1380,1902,1458,1394,6,-6,21.6700001,0,0.0199999996,0.540000021,0,0,1,-0.0144249778,0.0538815334
6.029849,1783678210.068941,103,-4.49315882,-2.49874425,-2.76636696,0,-0.00533477962,-0.0159274079,0.986996293,1.58585358,3.30864263,2.30689764,435.017029,991.944458,0,0.180000007,-0.924516141,-0.309644133,-1.41784084,3.23256326,0.493324697,-3.54220748,0.995980263,1.00899994,-1.60000002,-1.60000002,-3,-0.200000003,0,0,3.0999999,3,2.5,-0.0588176474,0.135740444,0.181615636,0.00745322695,-0.0243962836,0,0,-0.00751257408,0.0245332457,-0.0450754464,0.146615729,-0.0450754464,0,0,0.147199482,-0.000583746179,-0,1435,1868,1458,1395,6,-6,21.6700001,0,0.0199999996,0.540000021,0,0,1,-0.0127279237,0.0797616392
6.099937,1783678210.139029,104,-4.84279394,-2.28982997,-2.82787514,0,0.200410351,-0.036576204,0.930077076,7.42003107,-2.33636665,-8.09072399,435.067017,991.944458,0,0.577000022,-2.25205302,12.1508951,-1.76306605,3.3837254,-0.488986969,8.76716995,0.995036781,1.24699998,-1.60000002,-1.60000002,-3,-0.200000003,0,0,3.0999999,3,2.5,0.146330908,0.316758484,0.15927726,0.00823798962,-0.00327055505,0,0,-0.00805551466,0.00366555294,-0.0483330861,0.0213954449,-0.0483330861,0,-0,0.0219933167,-0.000597872538,-0,1492,1811,1465,1386,6,-6,21.6700001,0,0.0199999996,0.540000021,0,0,1,-0.0106065981,0.0784888566
6.141575,1783678210.180667,105,-5.74285841,-2.06697345,-2.85134315,0,0.137079716,-0.000529726967,0.927854717,6.09095669,-7.38079357,-3.78793049,435.117035,991.944458,0,0.370000005,-0.0327110663,8.40399075,-2.67619395,3.63088965,2.64348292,4.77310085,0.995976269,1.00999999,-1.60000002,-1.60000002,-3,-0.200000003,0,0,3.0999999,3,2.5,0.164879397,0.496828675,0.438868612,0.0106584337,0.0334925242,0,0,-0.0104919057,-0.0329907276,-0.0629514307,-0.198526964,-0.0629514307,0,-0,-0.197944373,-0.000582590466,-0,1468,1804,1463,1389,6,-6,21.6700001,0,0.0199999996,0.540000021,0,0,1,-0.0135764498,0.065336667
6.204549,1783678210.243641,106,-6.07026768,-1.90572906,-2.74902344,0,0.0472363159,-0.00477227196,1.01143074,3.28318596,-2.62116766,-4.03502941,435.167023,991.884949,0,0.0860000029,-0.270338833,2.67388201,-2.99989319,3.81423354,2.72955441,-1.14035153,0.997462392,0.636000037,-1.60000002,-1.60000002,-3,-0.200000003,0,0,3.0999999,3,2.5,0.110308826,0.110175066,0.457921982,0.0175902862,0.0548488423,0,0,-0.0173444618,-0.0545968711,-0.104066774,-0.328118354,-0.104066774,0,-0,-0.327581227,-0.00053711771,-0,1445,1843,1454,1399,6,-6,21.6700001,0,0.0199999996,0.540000021,0,0,1,-0.017394824,0.0750947371
6.266915,1783678210.306007,107,-5.68460178,-1.95358014,-2.6596489,0,0.0042764768,-0.053348884,1.04989672,1.89413226,4.09178829,9.55272675,435.21701,991.884949,0,0.0810000002,-2.90889502,0.233077213,-2.60608625,3.77770901,-0.302808762,-3.54463172,0.99598819,1.00699997,-1.60000002,-1.60000002,-3,-0.200000003,0,0,3.0999999,3,2.5,0.0253929198,-0.254465222,0.214370027,0.0128865782,0.0522226766,0,0,-0.0127915097,-0.0527683049,-0.0767490566,-0.317091674,-0.0767490566,0,-0,-0.31660983,-0.000481852476,0,1413,1854,1460,1392,6,-6,21.6700001,0,0.0199999996,0.540000021,0,0,1,-0.0271528978,0.0848528147
6.329632,1783678210.368723,108,-5.08764744,-1.90197802,-2.64275169,0,0.0530271083,0.0430334732,0.917414367,-0.375222325,6.21997356,-0.687778473,435.267029,991.884949,0,0.160000011,2.68562436,3.30442476,-2.02926135,3.81714749,4.71488571,-0.512722731,0.99598819,1.00699997,-1.60000002,-1.60000002,-3,-0.200000003,0,0,3.0999999,3,2.5,0.0788696855,-0.34711048,0.24344945,0.00856460445,0.0413189754,0,0,-0.00848518312,-0.0416685157,-0.0509110987,-0.250445664,-0.0509110987,0,-0,-0.250011086,-0.000434588379,0,1433,1867,1461,1391,6,-6,21.6700001,0,0.0199999996,0.540000021,0,0,1,-0.0203646757,0.108611599
6.391754,1783678210.430846,109,-4.52338123,-1.74460959,-2.70426178,0,0.19098644,-0.00655967742,0.868744612,-1.05241299,-1.88779879,-7.58701372,435.317017,991.884949,0,0.747000039,-0.432618171,12.3984346,-1.45017457,3.93841839,1.01755643,8.46001625,0.995976269,1.00999999,-1.60000002,-1.60000002,-3,-0.200000003,0,0,3.0999999,3,2.5,0.150916696,-0.291542053,0.11448165,0.00475601014,0.0374684967,0,0,-0.0046035843,-0.0377629548,-0.0276215058,-0.226972684,-0.0276215058,0,-0,-0.226577729,-0.000394953066,0,1475,1875,1466,1384,6,-6,21.6700001,0,0.0199999996,0.540000021,0,0,1,-0.00593969598,0.114127025
6.437300,1783678210.476392,110,-4.18530321,-1.50863552,-2.85261726,0,0.0611710735,0.00980018079,0.988300085,0.932728052,0.289460421,-3.21241069,435.367035,991.884949,0,0.336000025,0.568137765,3.5416441,-1.1147536,4.21111917,1.68289137,-0.669475079,0.99598819,1.00699997,-1.60000002,-1.60000002,-3,-0.200000003,0,0,3.0999999,3,2.5,0.0943578333,-0.149014935,0.085161835,0.00602913508,0.0377092697,0,0,-0.0059341169,-0.0378593281,-0.0356047004,-0.227513313,-0.0356047004,0,-0,-0.227155969,-0.000357340352,0,1408,1857,1462,1390,6,-6,21.6700001,0,0.0199999996,0.540000021,0,0,1,-0.000212132931,0.128339887
6.501192,1783678210.540284,111,-4.13319111,-1.30105972,-3.03219604,0,0.00357928127,-0.0287287235,1.09997296,3.50815988,7.09189987,-1.04410911,435.417023,991.948425,0,0.0860000029,-1.49609184,0.186374664,-1.0543704,4.43060923,-0.441721439,-4.24423456,0.996559918,0.862999976,-1.60000002,-1.60000002,-3,-0.200000003,0,0,3.0999999,3,2.5,-0.149523333,0.0556141548,0.137615651,0.00498722587,0.0519408211,0,0,-0.00524449907,-0.0518404394,-0.0314669944,-0.311354995,-0.0314669944,0,0,-0.311042637,-0.000312358956,0,1367,1839,1464,1387,6,-6,21.6700001,0,0.0199999996,0.540000021,0,0,1,0.00763675943,0.130673334
6.583937,1783678210.623029,112,-4.3870492,-1.01998854,-3.22159195,0,0.0190854296,-0.0210766718,0.981916904,3.17204762,12.7332506,-3.00731635,435.46701,991.948425,0,0.576000035,-1.22965503,1.11325634,-1.31007135,4.71154404,0.0804163218,-3.59828758,0.995980263,1.00899994,-1.60000002,-1.60000002,-3,-0.200000003,0,0,3.0999999,3,2.5,-0.0263314545,0.256515622,0.205880344,0.0031824836,0.0682314411,0,0,-0.00320905214,-0.0679726154,-0.0192543119,-0.408088326,-0.0192543119,0,-0,-0.407835692,-0.000252631871,-0,1367,1826,1467,1383,6,-6,21.6700001,0,0.0199999996,0.540000021,0,0,1,0.0118793994,0.144249782
6.626913,1783678210.666004,113,-4.76137257,-0.885969162,-3.33312798,0,0.130843282,-0.0542691946,0.986579061,-0.25381282,-0.177962065,-1.02968848,435.517029,991.948425,0,0.459000021,-3.14852142,7.54339075,-1.67817259,4.82017469,-1.47034883,2.72321606,0.99598819,1.00699997,-1.60000002,-1.60000002,-3,-0.200000003,0,0,3.0999999,3,2.5,-0.0241471604,0.33022806,0.0297939591,0.00239872979,0.0966188386,0,0,-0.00242304592,-0.0962862968,-0.0145382751,-0.577887058,-0.0145382751,0,0,-0.577717781,-0.00016929883,-0,1437,1849,1468,1382,6,-6,21.6700001,0,0.0199999996,0.540000021,0,0,1,0.0108187348,0.147007495
6.657428,1783678210.696520,114,-4.83102989,-0.996396065,-3.31577492,0,-0.00338276476,0.0204032883,1.04911435,1.18585515,5.67622042,1.63815212,435.567017,991.948425,0,0.563000023,1.11415398,-0.184708968,-1.76749456,4.74421787,2.88164854,-4.92892694,0.995222986,1.19999993,-1.60000002,-1.60000002,-3,-0.200000003,0,0,3.0999999,3,2.5,-0.265377939,0.0642597452,0.0199980997,-0.00522645004,0.113511935,0,0,0.00490799639,-0.113434821,0.0294479784,-0.680671751,0.0294479784,0,0,-0.680608928,-6.27935224e-05,-0,1367,1840,1461,1391,6,-6,21.6700001,0,0.0199999996,0.540000021,0,0,1,0.0082731545,0.175433189
6.718616,1783678210.757708,115,-4.90902281,-0.979518414,-3.31215286,0,0.047004547,-0.0240250379,1.01646662,4.93881464,10.0755301,1.38500404,435.617035,991.948425,0,0.647000015,-1.35398161,2.64690852,-1.83364987,4.74598837,0.47966826,-2.09907985,0.995980263,1.00899994,-1.60000002,-1.60000002,-3,-0.200000003,0,0,3.0999999,3,2.5,-0.152986616,-0.00428573554,0.206383377,-0.0101887733,0.123500496,0,0,0.0100344094,-0.123504817,0.060206458,-0.740972459,0.060206458,0,0,-0.741028905,5.64224392e-05,0,1367,1808,1466,1385,6,-6,21.6700001,0,0.0199999996,0.540000021,0,0,1,0.00784888119,0.177130252
6.811312,1783678210.850404,116,-5.13472843,-1.04809952,-3.32270813,0,0.116493247,0.0180808231,0.926327527,7.06361818,5.906991,-4.60175896,435.667023,990.490479,0,0.0910000056,1.11820424,7.16643286,-2.06600165,4.6622262,3.18420601,2.50420666,0.997307301,0.675000012,-1.60000002,-1.60000002,-3,-0.200000003,0,0,3.0999999,3,2.5,0.0310883783,-0.0149557795,0.322379708,-0.0145021956,0.12956363,0,0,0.0145188281,-0.129561245,0.0871129707,-0.777184427,0.0871129707,0,0,-0.777367473,0.000183061828,-0,1492,1803,1470,1379,6,-6,21.6700001,0,0.0199999996,0.540000021,0,0,1,0.00403051078,0.162281007
6.841862,1783678210.880954,117,-5.35585308,-1.23120546,-3.35205078,0,0.12390732,0.0337930247,0.974220157,4.52151489,-6.64002419,-5.8226099,435.71701,990.490479,0,0.584000051,1.986637,7.2440033,-2.29576659,4.47473145,4.28240347,2.76927185,0.995980263,1.00899994,-1.60000002,-1.60000002,-3,-0.200000003,0,0,3.0999999,3,2.5,-0.0116861388,0.0670692027,0.250579417,-0.0126605788,0.138465106,0,0,0.0126487873,-0.13839744,0.0758927241,-0.830067575,0.0758927241,0,0,-0.830384612,0.000317038677,-0,1473,1803,1467,1383,6,-6,21.6700001,0,0.0199999996,0.540000021,0,0,1,-0.0156977773,0.176918119
6.904754,1783678210.943846,118,-5.30091953,-1.21749592,-3.39136887,0,-0.00548664853,-0.096900031,1.04599786,0.48450458,0.0111010075,4.70098305,435.767029,990.490479,0,0.319000006,-5.2927084,-0.299253613,-2.21121931,4.51896,-3.08148909,-4.81821346,0.995976269,1.00999999,-1.60000002,-1.60000002,-3,-0.200000003,0,0,3.0999999,3,2.5,0.189005882,-0.0094743371,0.252791375,-0.00363872247,0.144184381,0,0,0.00382961845,-0.144193947,0.0229777098,-0.86470443,0.0229777098,0,-0,-0.865163684,0.000459252275,0,1423,1847,1466,1385,6,-6,21.6700001,0,0.0199999996,0.540000021,0,0,1,-0.0260922313,0.193676546
6.967470,1783678211.006562,119,-4.98200417,-1.37223864,-3.42969513,0,0.0371270776,-0.0243990645,0.918849945,-4.93058634,-2.84884691,-0.0406107903,435.817017,990.490479,0,0.761000037,-1.52106988,2.3130219,-1.90624988,4.3530221,0.385179996,-2.0400002,0.995984197,1.00800002,-1.60000002,-1.60000002,-3,-0.200000003,0,0,3.0999999,3,2.5,0.146762565,-0.0141720921,0.211841404,-4.29824431e-05,0.149908677,0,0,0.000190919105,-0.149922967,0.00114551466,-0.898931384,0.00114551466,0,-0,-0.899537802,0.000606430985,0,1515,1886,1467,1384,6,-6,21.6700001,0,0.0199999996,0.540000021,0,0,1,-0.0350017771,0.21743533
7.029683,1783678211.068775,120,-4.58464289,-1.08293295,-3.49829292,0,0.22004661,-0.0639293492,0.89895165,-11.7515554,-8.82721138,-3.95531559,435.867035,990.490479,0,0.465000033,-4.06776714,13.7211437,-1.49699771,4.59742451,-2.57076931,9.12371922,0.995976269,1.00999999,-1.60000002,-1.60000002,-3,-0.200000003,0,0,3.0999999,3,2.5,0.688067734,0.0414240286,0.0139087886,0.0176024176,0.15515624,0,0,-0.0169074684,-0.155114397,-0.101444811,-0.929926753,-0.101444811,0,-0,-0.930686355,0.000759603514,-0,1515,1937,1475,1372,6,-6,21.6700001,0,0.0199999996,0.540000021,0,0,1,-0.0362745672,0.195797861
7.060750,1783678211.099842,121,-4.45092964,-1.17161608,-3.52498055,0,0.105756953,-0.0137870163,1.02848637,-6.44677734,-10.5881481,-0.550350189,435.917023,993.131836,0,0.410000026,-0.768012702,5.87043858,-1.37621081,4.53980303,0.608198106,1.33063555,0.995754123,1.06599998,-1.60000002,-1.60000002,-3,-0.200000003,0,0,3.0999999,3,2.5,0.128066003,0.155456781,-0.0270616673,0.0238876697,0.172921181,0,0,-0.0237511508,-0.172755465,-0.142506897,-1.03560889,-0.142506897,0,-0,-1.03653276,0.000923876301,-0,1515,1902,1462,1390,6,-6,21.6700001,0,0.0199999996,0.540000021,0,0,1,-0.0292742178,0.193464398
7.124776,1783678211.163868,122,-4.8744669,-0.872981071,-3.44570541,0,0.0826722905,-0.0403764546,1.14633822,1.25722134,5.09226799,-2.4850564,435.96701,993.131836,0,0.564999998,-2.01724458,4.12240171,-1.79627788,4.84700012,-0.220966697,-0.724598408,0.995980263,1.00899994,-1.60000002,-1.60000002,-3,-0.200000003,0,0,3.0999999,3,2.5,0.0571029186,0.451872468,0.139969796,0.0287579931,0.188147023,0,0,-0.0287003759,-0.187691078,-0.172202259,-1.12504351,-0.172202259,0,-0,-1.12614644,0.00110295985,-0,1367,1815,1466,1385,6,-6,21.6700001,0,0.0199999996,0.540000021,0,0,1,-0.025031589,0.193888694
7.186418,1783678211.225510,123,-6.0175457,-0.277128696,-3.23282242,0,0.145248175,-0.0737263262,0.961725712,-0.559963107,9.51002312,8.32786274,436.017029,993.131836,0,0.43900001,-4.38374615,8.56364727,-2.93441296,5.42732048,-1.44933319,3.13632679,0.995976269,1.00999999,-1.60000002,-1.60000002,-3,-0.200000003,0,0,3.0999999,3,2.5,0.20708397,0.719122708,0.132693917,0.025580259,0.222434565,0,0,-0.0253711045,-0.221708253,-0.152226627,-1.32894242,-0.152226627,0,-0,-1.33024955,0.00130718446,-0,1409,1815,1458,1395,6,-6,21.6700001,0,0.0199999996,0.540000021,0,0,1,-0.0125157759,0.227617681
7.248175,1783678211.287267,124,-6.38084984,-0.213591099,-2.87051582,0,0.0532124601,-0.0537436381,1.02414656,1.61107934,3.30110455,8.74264336,436.067017,993.131836,0,0.609000027,-3.00392723,2.97021198,-3.30494285,5.5152626,0.301015615,-2.54505062,0.995369494,1.16299999,-1.60000002,-1.60000002,-3,-0.200000003,0,0,3.0999999,3,2.5,-0.167229176,0.00190544687,0.180708632,0.012146703,0.238156989,0,0,-0.0123411901,-0.238154769,-0.0740471408,-1.42738914,-0.0740471408,0,0,-1.42892861,0.00153950206,-0,1367,1803,1459,1393,6,-6,21.6700001,0,0.0199999996,0.540000021,0,0,1,0.000212132931,0.225920603
7.311191,1783678211.350283,125,-6.17790127,-0.201241016,-2.48221016,0,-0.044027511,-0.048357144,1.08740449,3.9784472,15.1013889,11.2405396,436.117035,993.131836,0,0.316000015,-2.54627967,-2.31627417,-3.10283732,5.54743767,0.556557655,-7.86371183,0.995980263,1.00899994,-1.60000002,-1.60000002,-3,-0.200000003,0,0,3.0999999,3,2.5,-0.606429338,-0.383534729,0.209714621,-0.0125629697,0.223063052,0,0,0.0119510824,-0.223450035,0.0717064962,-1.33892894,0.0717064962,0,0,-1.34070015,0.00177125889,0,1367,1803,1445,1409,6,-6,21.6700001,0,0.0199999996,0.540000021,0,0,1,0.00890953839,0.241830513
7.373150,1783678211.412242,126,-5.65542269,-0.170631886,-2.3635807,0,0.0474302061,-0.0317921862,1.08889222,-0.720701575,16.0674591,0.0125828981,436.167023,991.561768,0,0.41200003,-1.67237926,2.49306464,-2.5806253,5.55487633,0.90824604,-3.06181169,0.997243643,0.691000044,-1.60000002,-1.60000002,-3,-0.200000003,0,0,3.0999999,3,2.5,-0.400241226,-0.486045152,0.218221515,-0.0323082767,0.201944172,0,0,0.0315019824,-0.202942416,0.189011902,-1.21567023,0.189011902,0,0,-1.21765447,0.00198426726,0,1367,1839,1458,1395,6,-6,21.6700001,0,0.0199999996,0.540000021,0,0,1,0.0252437145,0.24161838
7.419125,1783678211.458217,127,-5.02616644,-0.439913273,-2.56910706,0,0.0675330758,-0.0380908884,0.955453753,-6.74793673,4.73725748,-3.37271261,436.21701,991.561768,0,0.523000002,-2.28299069,4.03983974,-1.94751966,5.2821393,-0.335471034,-1.24229956,0.99598819,1.00699997,-1.60000002,-1.60000002,-3,-0.200000003,0,0,3.0999999,3,2.5,-0.312614352,-0.332791597,0.380382836,-0.0401953571,0.189982861,0,0,0.0398805551,-0.190317988,0.239283323,-1.13972819,0.239283323,0,0,-1.14190793,0.00217978377,0,1455,1893,1464,1388,6,-6,21.6700001,0,0.0199999996,0.540000021,0,0,1,0.0106066018,0.273650348
7.481503,1783678211.520595,128,-4.33121586,-1.08095598,-2.91313744,0,0.156900287,-0.0421957597,0.898240328,-10.0580616,-6.13129091,-14.7737551,436.267029,991.561768,0,0.148000002,-2.68955088,9.89748764,-1.24813759,4.61494064,-1.44141328,5.282547,0.995992124,1.00599992,-1.60000002,-1.60000002,-3,-0.200000003,0,0,3.0999999,3,2.5,-0.222393245,-0.110263526,0.345054775,-0.0548049361,0.179748997,0,0,0.05458121,-0.179859921,0.32748726,-1.07679451,0.32748726,0,0,-1.0791595,0.00236499868,0,1507,1915,1472,1376,6,-6,21.6700001,0,0.0199999996,0.540000021,0,0,1,-0,0.258801073
7.544171,1783678211.583263,129,-4.30086184,-1.38189936,-3.07442284,0,0.132734135,-0.157738343,1.04403615,-9.75951099,-5.69377899,13.1777554,436.317017,991.561768,0,0.742000043,-8.59156227,7.16500521,-1.19391179,4.32378197,-7.39765072,2.84122324,0.995992124,1.00599992,-1.60000002,-1.60000002,-3,-0.200000003,0,0,3.0999999,3,2.5,0.156429023,0.288165927,0.329418063,-0.0497842319,0.200471044,0,0,0.0499415994,-0.200181141,0.299649596,-1.19853187,0.299649596,0,-0,-1.20108688,0.0025550581,-0,1450,1925,1470,1380,6,-6,21.6700001,0,0.0199999996,0.540000021,0,0,1,-0.0383958966,0.292105794
7.574210,1783678211.613302,130,-4.91531372,-1.70135832,-3.08968353,0,0.0919280499,-0.0726122931,0.98853159,-8.15878677,-4.99862671,-12.6502857,436.367035,991.561768,0,0.320000023,-4.2010994,5.29872084,-1.82847512,4.01053238,-2.3726244,1.28818846,0.995980263,1.00899994,-1.60000002,-1.60000002,-3,-0.200000003,0,0,3.0999999,3,2.5,0.0747928023,0.760168016,0.318567306,-0.0398312956,0.237948015,0,0,0.0399067625,-0.237181008,0.239440575,-1.4203136,0.239440575,0,-0,-1.42308605,0.00277246907,-0,1484,1887,1467,1384,6,-6,21.6700001,0,0.0199999996,0.540000021,0,0,1,-0.0394565463,0.335592866
7.637035,1783678211.676127,131,-5.77468395,-1.06266689,-2.97125435,0,0.118938893,-0.122852944,0.828587174,-1.83899093,-11.7365265,7.01682377,436.417023,991.210999,0,0.408000022,-8.43368721,8.08151722,-2.67785621,4.64273596,-5.75583076,3.43878126,0.996607542,0.851000011,-1.60000002,-1.60000002,-3,-0.200000003,0,0,3.0999999,3,2.5,1.130983,0.595729053,0.272421658,-0.00423726114,0.27939716,0,0,0.00655377097,-0.278204471,0.0393226258,-1.6661948,0.0393226258,0,-0,-1.66922688,0.00303212414,-0,1515,1836,1473,1375,6,-6,21.6700001,0,0.0199999996,0.540000021,0,0,1,-0.0591848493,0.231011778
7.700161,1783678211.739253,132,-6.60963154,-1.36730194,-3.10251617,0,0.180126309,0.0226951502,0.942397952,6.80385685,-18.5221367,-16.676796,436.46701,991.210999,0,0.555000007,1.37954986,10.8177204,-3.55215454,4.32366228,4.93170452,6.49405813,0.995980263,1.00899994,-1.60000002,-1.60000002,-3,-0.200000003,0,0,3.0999999,3,2.5,0.375118911,0.158380926,0.0777552128,0.0191560294,0.301701099,0,0,-0.0187775344,-0.301541299,-0.112665206,-1.8059243,-0.112665206,0,-0,-1.80924773,0.00332347886,-0,1515,1803,1467,1383,6,-6,21.6700001,0,0.0199999996,0.540000021,0,0,1,-0.0863377303,0.341320455
7.763021,1783678211.802113,133,-7.56026268,-1.15188169,-3.02942467,0,0.117625222,-0.138653427,1.04271495,6.63328362,-9.84729767,10.858902,436.517029,991.210999,0,0.137000009,-7.57438469,6.380445,-4.47048473,4.55786085,-3.10389996,1.82258415,0.995980263,1.00899994,-1.60000002,-1.60000002,-3,-0.200000003,0,0,3.0999999,3,2.5,0.627462089,0.165444642,-0.0637632385,0.031063661,0.310878038,0,0,-0.0304305516,-0.310711116,-0.182583302,-1.86063588,-0.182583302,0,-0,-1.86426663,0.0036307266,-0,1515,1803,1454,1399,6,-6,21.6700001,0,0.0199999996,0.540000021,0,0,1,-0.065336667,0.224859953
7.827136,1783678211.866228,134,-7.67739153,-0.818428516,-2.88595009,0,0.147115186,0.0117274858,0.984102011,3.97278357,-7.6670785,-7.29914474,436.567017,991.210999,0,0.607000053,0.682758093,8.50169182,-4.6242013,4.88219595,5.30695915,3.61949587,0.995456696,1.14099991,-1.60000002,-1.60000002,-3,-0.200000003,0,0,3.0999999,3,2.5,0.546013951,-0.320802271,-0.0803533569,0.0481209271,0.299555779,0,0,-0.0474979244,-0.299921811,-0.284987539,-1.795596,-0.284987539,0,-0,-1.79953086,0.00393486163,0,1515,1803,1457,1396,6,-6,21.6700001,0,0.0199999996,0.540000021,0,0,1,-0.065336667,0.224859953
7.871004,1783678211.910096,135,-7.37194967,-0.590099812,-2.63824654,0,0.127307013,-0.10612677,0.886735141,-0.0410708189,-13.2966671,13.6822147,436.617035,991.210999,0,0.289000005,-6.82484531,8.11290932,-4.28442669,5.11490536,-2.54041862,2.99800396,0.995976269,1.00999999,-1.60000002,-1.60000002,-3,-0.200000003,0,0,3.0999999,3,2.5,0.383605987,-0.388003498,-0.260884106,0.0572309345,0.277575701,0,0,-0.0568434931,-0.277967572,-0.341060966,-1.66358292,-0.341060966,0,-0,-1.66780543,0.00422245916,0,1515,1811,1458,1395,6,-6,21.6700001,0,0.0199999996,0.540000021,0,0,1,-0.063639611,0.226557016
7.947718,1783678211.986809,136,-6.89558697,-0.250359058,-2.32687569,0,0.142150626,0.0319044925,0.920835674,-11.5215178,-17.4190578,-3.27057743,436.667023,992.993225,0,0.518000007,1.98435163,8.77037334,-3.84922576,5.4490943,5.83357716,3.32127905,0.994696259,1.33300006,-1.60000002,-1.60000002,-3,-0.200000003,0,0,3.0999999,3,2.5,0.24058795,-0.218697205,-0.575643361,0.0682022199,0.265073597,0,0,-0.0677487627,-0.265555322,-0.406492591,-1.58883905,-0.406492591,0,-0,-1.59333193,0.00449292641,0,1515,1905,1448,1407,6,-6,21.6700001,0,0.0199999996,0.540000021,0,0,1,-0.0379716381,0.223375022
7.979405,1783678212.018497,137,-5.89599133,-0.131056786,-2.06788635,0,0.0975803062,-0.110444278,1.01332307,-6.12471867,-9.82960892,12.3138189,436.71701,992.993225,0,0.5,-6.22023821,5.46828508,-2.80494833,5.58648777,-3.41528988,-0.118202686,0.995976269,1.00999999,-1.60000002,-1.60000002,-3,-0.200000003,0,0,3.0999999,3,2.5,0.0398412347,-0.390613943,-0.595329821,0.0582901016,0.241369516,0,0,-0.058249861,-0.241764039,-0.349499166,-1.4458375,-0.349499166,0,-0,-1.45058417,0.00474667922,0,1494,1882,1451,1403,6,-6,21.6700001,0,0.0199999996,0.540000021,0,0,1,-0.0284256786,0.323713481
8.043100,1783678212.082192,138,-5.80301666,-0.163477898,-1.9184227,0,0.133478537,-0.159254372,1.10889113,-5.80633307,6.10254765,9.22687531,436.767029,992.993225,0,0.138000011,-8.17270088,6.79468536,-2.70373154,5.54858208,-5.46896935,1.24610329,0.995980263,1.00899994,-1.60000002,-1.60000002,-3,-0.200000003,0,0,3.0999999,3,2.5,-0.38034448,0.232024029,-0.245354503,0.0337595493,0.234854966,0,0,-0.0341433175,-0.234620854,-0.204859912,-1.40274227,-0.204859912,0,0,-1.4077251,0.00498278858,-0,1367,1868,1457,1396,6,-6,21.6700001,0,0.0199999996,0.540000021,0,0,1,-0.0159099102,0.208950058
8.106208,1783678212.145299,139,-6.19486904,0.32820034,-1.69107056,0,-0.0104363374,-0.139976829,0.980652392,-5.71896791,15.7439318,0.751665294,436.817017,992.993225,0,0.159000009,-8.12343979,-0.603614748,-3.09740424,6.07205009,-5.02603531,-6.6756649,0.99598819,1.00699997,-1.60000002,-1.60000002,-3,-0.200000003,0,0,3.0999999,3,2.5,-0.438722312,0.419145882,0.128259972,0.0113376305,0.257285684,0,0,-0.0121632526,-0.256457716,-0.0729795173,-1.53351796,-0.0729795173,0,0,-1.53874636,0.00522838207,-0,1389,1857,1445,1409,6,-6,21.6700001,0,0.0199999996,0.540000021,0,0,1,0.0447598621,0.292105794
8.151924,1783678212.191016,140,-6.53032398,0.315674305,-1.61306763,0,0.133524328,0.00731954724,0.866013467,5.0107522,13.8447447,-8.08669853,436.867035,992.993225,0,0.278000027,0.484252512,8.76469231,-3.46889806,6.02172756,3.95315051,2.74296474,0.995984197,1.00800002,-1.60000002,-1.60000002,-3,-0.200000003,0,0,3.0999999,3,2.5,-0.541466236,0.0472473055,0.414506376,-0.0211159494,0.269393086,0,0,0.0205701515,-0.269345462,0.123420909,-1.61057949,0.123420909,0,0,-1.61607277,0.0054933303,-0,1368,1803,1449,1406,6,-6,21.6700001,0,0.0199999996,0.540000021,0,0,1,0.0526087508,0.272377521
8.213947,1783678212.253039,141,-7.21268606,0.347568035,-1.63062477,0,0.116508745,-0.0529546142,0.971602798,10.7270565,10.6378117,-4.10435009,436.917023,991.620972,0,0.0810000002,-3.11966681,6.82787609,-4.13914299,6.06181288,1.01947618,0.766063213,0.996313632,0.925000012,-1.60000002,-1.60000002,-3,-0.200000003,0,0,3.0999999,3,2.5,-0.674143851,-0.0190274287,0.355787694,-0.0500722639,0.27233234,0,0,0.0486491546,-0.27235657,0.291894913,-1.62837553,0.291894913,0,0,-1.63413942,0.0057638716,-0,1367,1803,1447,1408,6,-6,21.6700001,0,0.0199999996,0.540000021,0,0,1,0.063639611,0.226132751
8.276741,1783678212.315833,142,-8.0302887,-0.0576248169,-1.65880394,0,-0.0829928294,-0.0759050176,0.98219502,7.79526234,14.619626,-5.30634022,436.96701,991.620972,0,0.541000009,-4.4190917,-4.81557465,-4.95514297,5.70172071,0.536051273,-10.5172958,0.995980263,1.00899994,-1.60000002,-1.60000002,-3,-0.200000003,0,0,3.0999999,3,2.5,-0.935812354,0.251449972,0.377602041,-0.0751315653,0.276480258,0,0,0.0741873309,-0.27622655,0.445123971,-1.65132225,0.445123971,0,0,-1.65735936,0.00603713142,-0,1367,1803,1440,1415,6,-6,21.6700001,0,0.0199999996,0.540000021,0,0,1,0.0725491494,0.195585713
8.339221,1783678212.378313,143,-8.07529068,-0.687301159,-1.64294052,0,-0.0494506434,-0.0643341392,1.02999055,-0.7978127,12.8219395,6.93251848,437.017029,991.620972,0,0.125,-3.57410312,-2.743366,-5.0037303,5.06110859,1.42962718,-7.80447483,0.995984197,1.00800002,-1.60000002,-1.60000002,-3,-0.200000003,0,0,3.0999999,3,2.5,-0.840152919,-0.113501266,0.274159402,-0.0888096094,0.272125036,0,0,0.0879627317,-0.272239447,0.527776361,-1.62712383,0.527776361,0,0,-1.63343668,0.00631279312,0,1367,1827,1445,1410,6,-6,21.6700001,0,0.0199999996,0.540000021,0,0,1,0.0523966104,0.222526506
8.400878,1783678212.439970,144,-7.30784178,-1.43328094,-1.68012238,0,-0.0915692374,0.0231758039,0.99850297,-5.20155525,12.5438013,-3.62196136,437.067017,991.620972,0,0.548000038,1.32962787,-5.23833752,-4.25500536,4.3256855,5.58463335,-9.56402302,0.995619237,1.10000002,-1.60000002,-1.60000002,-3,-0.200000003,0,0,3.0999999,3,2.5,-0.68028295,-0.507006586,0.266836405,-0.102491319,0.249845639,0,0,0.101743005,-0.250403345,0.610458016,-1.49584508,0.610458016,0,0,-1.50242007,0.00657494273,0,1397,1857,1446,1408,6,-6,21.6700001,0,0.0199999996,0.540000021,0,0,1,0.037123099,0.238648519
8.462572,1783678212.501663,145,-6.51411486,-2.30513239,-1.92556572,0,0.0250666365,-0.0809759349,0.970234692,-8.10798168,-1.52041435,-2.02798414,437.117035,991.620972,0,0.230000004,-4.77085781,1.47481871,-3.43142962,3.41975451,-1.33942819,-1.9449358,0.995980263,1.00899994,-1.60000002,-1.60000002,-3,-0.200000003,0,0,3.0999999,3,2.5,-0.399049282,-0.359707564,0.134761542,-0.0986814126,0.227504179,0,0,0.0982787684,-0.227867126,0.589672625,-1.36039042,0.589672625,0,0,-1.36720276,0.00681236247,0,1509,1891,1458,1394,6,-6,21.6700001,0,0.0199999996,0.540000021,0,0,1,0.0203646719,0.273650318
8.494577,1783678212.533669,146,-5.8270607,-2.55694318,-2.2662487,0,0.0285943635,0.038583532,1.04125702,-14.2923965,-3.77961922,-8.50572968,437.167023,991.15155,0,0.564999998,2.12211061,1.57194805,-2.77513242,3.16839671,4.89724302,-1.59644866,0.994818985,1.30200005,-1.60000002,-1.60000002,-3,-0.200000003,0,0,3.0999999,3,2.5,0.369316399,-0.189412594,-0.0132672768,-0.0826380551,0.221609712,0,0,0.0832922459,-0.221928999,0.499753475,-1.32453775,0.499753475,0,-0,-1.33157396,0.00703623099,0,1463,1946,1450,1404,6,-6,21.6700001,0,0.0199999996,0.540000021,0,0,1,-0.00806102157,0.28680253
8.556171,1783678212.595263,147,-5.64215469,-2.74420714,-2.70767212,0,0.0601106361,-0.211035714,1.09219027,-13.2365923,-13.1311712,4.52068138,437.21701,991.15155,0,0.467000008,-10.9360628,3.09310031,-2.53110099,2.97237659,-8.40496159,0.120723724,0.995984197,1.00800002,-1.60000002,-1.60000002,-3,-0.200000003,0,0,3.0999999,3,2.5,0.0827268884,0.315833032,0.126798958,-0.0554040037,0.235218346,0,0,0.0554873906,-0.234899983,0.332924336,-1.40213597,0.332924336,0,-0,-1.40939987,0.0072639049,-0,1456,1945,1473,1376,6,-6,21.6700001,0,0.0199999996,0.540000021,0,0,1,-0.00572755933,0.288711667
8.617305,1783678212.656397,148,-6.02705622,-2.43382001,-3.08385849,0,0.0750976577,-0.00299309194,1.00762272,-7.63270521,4.77129698,-22.2061119,437.267029,991.15155,0,0.168000013,-0.170193687,4.2623291,-2.96098471,3.2792933,2.79079103,0.983035803,0.995976269,1.00999999,-1.60000002,-1.60000002,-3,-0.200000003,0,0,3.0999999,3,2.5,0.705581009,0.539061308,0.34428224,-0.0340054892,0.256809831,0,0,0.0347181261,-0.256265372,0.208308756,-1.53008354,0.208308756,0,-0,-1.53759217,0.00750863692,-0,1438,1876,1459,1394,6,-6,21.6700001,0,0.0199999996,0.540000021,0,0,1,-0.00572755933,0.288711667
8.680912,1783678212.720004,149,-7.09400749,-1.95969653,-3.26700783,0,0.273636073,-0.200290978,0.888108134,-2.27065468,-10.9433336,-2.72452736,437.317017,991.15155,0,0.651000023,-12.7090359,16.7288055,-3.98162436,3.70501995,-8.72741127,13.0237856,0.995980263,1.00899994,-1.60000002,-1.60000002,-3,-0.200000003,0,0,3.0999999,3,2.5,0.523641706,0.794043064,0.284039587,0.00245025265,0.290284961,0,0,-0.0019218981,-0.289483786,-0.0115313884,-1.72912073,-0.0115313884,0,-0,-1.73690271,0.00778193679,-0,1508,1819,1480,1365,6,-6,21.6700001,0,0.0199999996,0.540000021,0,0,1,-0.0197282881,0.270044088
8.754454,1783678212.793546,150,-7.8801713,-1.44474268,-3.22530174,0,0.0369706713,-0.000827908516,1.03726125,2.3702631,0.471786737,-9.0394516,437.367035,991.15155,0,0.226000011,-0.0457316339,2.04130483,-4.8220892,4.28133965,4.77635765,-2.24003482,0.995976269,1.00999999,-1.60000002,-1.60000002,-3,-0.200000003,0,0,3.0999999,3,2.5,0.249209374,0.252725065,0.484977484,0.0274151936,0.309533536,0,0,-0.0271634925,-0.30927828,-0.162980959,-1.84758508,-0.162980959,0,-0,-1.85566974,0.0080846725,-0,1435,1803,1450,1404,6,-6,21.6700001,0,0.0199999996,0.540000021,0,0,1,-0.0184554905,0.226344883
8.790343,1783678212.829435,151,-7.90006399,-0.85703516,-3.16581154,0,0.149917737,0.0371518582,0.917439342,2.37300611,4.23029995,-11.9936218,437.417023,993.353699,0,0.766000032,2.31893516,9.27314663,-4.85372972,4.84089804,7.17266464,4.43224859,0.995682716,1.08399999,-1.60000002,-1.60000002,-3,-0.200000003,0,0,3.0999999,3,2.5,0.518619895,-0.407741427,0.690570354,0.0390843339,0.291040778,0,0,-0.0385221504,-0.291482776,-0.231132895,-1.74050951,-0.231132895,0,-0,-1.7488966,0.00838709529,0,1409,1803,1464,1387,6,-6,21.6700001,0,0.0199999996,0.540000021,0,0,1,-0.015273504,0.212132037
8.851089,1783678212.890181,152,-7.23388863,-0.522768974,-3.16707039,0,0.157278404,-0.0290891826,0.848362327,-4.78666162,-7.38882065,6.28161716,437.46701,993.353699,0,0.411000013,-1.96382439,10.4968243,-4.1654377,5.17289925,2.20161343,5.32392502,0.995980263,1.00899994,-1.60000002,-1.60000002,-3,-0.200000003,0,0,3.0999999,3,2.5,0.151403233,-0.635620773,0.459096372,0.0513358787,0.25739041,0,0,-0.051183112,-0.258031756,-0.307098687,-1.53952944,-0.307098687,0,-0,-1.54819059,0.0086611174,0,1489,1851,1470,1379,6,-6,21.6700001,0,0.0199999996,0.540000021,0,0,1,-0.018667616,0.209162176
8.912099,1783678212.951191,153,-6.12792492,-0.6943326,-3.09316635,0,0.113618016,0.0454398692,0.981490016,-11.5855303,-3.6681602,-0.281046867,437.517029,993.353699,0,0.0690000057,2.65071988,6.5962081,-3.07144547,5.01698971,5.72216511,1.57921839,0.996361315,0.913000047,-1.60000002,-1.60000002,-3,-0.200000003,0,0,3.0999999,3,2.5,-0.164143667,-0.747415125,0.164762035,0.0458576716,0.22407113,0,0,-0.0462233685,-0.225572363,-0.277340204,-1.34453189,-0.277340204,0,0,-1.35343421,0.00890226103,0,1406,1925,1463,1388,6,-6,21.6700001,0,0.0199999996,0.540000021,0,0,1,-0.018667616,0.209162176
8.974691,1783678213.013783,154,-5.41228056,-0.605474472,-3.02731323,0,-0.0436533839,0.0219908059,1.05331922,-14.539547,10.6992779,-5.77646065,437.567017,993.353699,0,0.534000039,1.19602621,-2.37267137,-2.35062885,5.14476442,3.54665518,-7.51743603,0.995587587,1.10800004,-1.60000002,-1.60000002,-3,-0.200000003,0,0,3.0999999,3,2.5,0.0899445042,-0.0670902506,0.215119079,0.036967162,0.204164088,0,0,-0.0368675031,-0.20423843,-0.221205026,-1.21631742,-0.221205026,0,-0,-1.22543061,0.00911320746,0,1376,1951,1453,1400,6,-6,21.6700001,0,0.0199999996,0.540000021,0,0,1,-0.00700034201,0.22931473
9.068909,1783678213.108001,155,-5.56510925,-0.728587627,-2.93568802,0,0.14821285,-0.236137912,0.879833698,-20.8046703,-10.2882528,6.69609833,437.617035,993.353699,0,0.220000014,-15.0235224,9.24091816,-2.43726397,4.97133493,-12.5862579,4.26958323,0.995984197,1.00800002,-1.60000002,-1.60000002,-3,-0.200000003,0,0,3.0999999,3,2.5,-0.125743747,0.710100174,0.0229851827,0.0305477679,0.22316426,0,0,-0.0306745172,-0.222448483,-0.184047103,-1.32536757,-0.184047103,0,0,-1.33469093,0.00932337251,-0,1491,1951,1475,1373,6,-6,21.6700001,0,0.0199999996,0.540000021,0,0,1,-0.00593969971,0.185827643
9.099819,1783678213.138911,156,-6.6417017,-0.739844799,-2.75912285,0,0.0904493928,-0.316435069,1.08395886,-21.6123486,-13.2709074,-2.67469978,437.667023,991.510437,0,0.133000001,-16.2738628,4.57962847,-3.53125525,4.97826052,-12.7426071,-0.39863205,0.997398853,0.65200001,-1.60000002,-1.60000002,-3,-0.200000003,0,0,3.0999999,3,2.5,0.058465533,1.5193218,-0.299951673,0.0350111835,0.283415794,0,0,-0.0348789357,-0.28038162,-0.209273607,-1.67271674,-0.209273607,0,-0,-1.68228972,0.00957297627,-0,1507,1951,1455,1398,6,-6,21.6700001,0,0.0199999996,0.540000021,0,0,1,-0.00593969971,0.185827643
9.130483,1783678213.169574,157,-7.74382877,-0.820309639,-2.42207718,0,0.0414142311,-0.207586512,0.799936891,-21.0923157,4.09960985,4.64841461,437.71701,991.510437,0,0.433000028,-14.5475721,2.86880851,-4.6267271,4.90492773,-9.92084503,-2.03611922,0.99598819,1.00699997,-1.60000002,-1.60000002,-3,-0.200000003,0,0,3.0999999,3,2.5,0,0,0,0,0,0,0,-0.0387000404,-0.312533975,-0.232200235,-1.86549962,-0.232200235,0,-0,-1.87520385,0.00970421545,-0,1461,1951,1457,1396,6,-6,21.6700001,0,0.0199999996,0.540000021,0,0,1,-0.00593969971,0.185827643
9.193491,1783678213.232582,158,-8.63732338,-1.16155291,-1.90675926,0,-0.039801836,-0.202242315,0.847918332,-25.8945408,-18.9619961,14.329299,437.767029,991.510437,0,0.0700000003,-13.4153252,-2.6142993,-5.53617287,4.57728338,-7.8791523,-7.19158268,0.996973157,0.759000003,-1.60000002,-1.60000002,-3,-0.200000003,0,0,3.0999999,3,2.5,0.00308857462,0.0072182538,-0.0031022646,0.000138108735,-2.8462473e-05,0,0,-0.0387000404,-0.312533975,-0.232200235,-1.86549962,-0.232200235,0,-0,-1.87520385,0.00970421545,-0,1461,1951,1457,1396,6,-6,21.6700001,0,0.0199999996,0.540000021,0,0,1,0.00169705634,-0.000424264115
9.256244,1783678213.295336,159,-8.56536388,-1.88111544,-1.24676323,0,0.0363425128,-0.147593394,0.693862975,-24.8227348,-18.5363579,10.420002,437.817017,991.510437,0,0.629000008,-12.0085535,2.93274975,-5.46177244,3.83959484,-6.54678106,-0.906845093,0.995984197,1.00800002,-1.60000002,-1.60000002,-3,-0.200000003,0,0,3.0999999,3,2.5,0,0,0,-0.000560028537,0.000118793971,0,0,-0.0387000404,-0.312533975,-0.232200235,-1.86549962,-0.232200235,0,-0,-1.87520385,0.00970421545,-0,1461,1951,1457,1396,6,-6,21.6700001,0,0.0199999996,0.540000021,0,0,1,-0.00700035691,0.00148492469
9.319289,1783678213.358381,160,-7.89645195,-1.90522575,-0.552471161,0,0.0124975853,-0.131095216,0.740143895,-28.5023003,-20.4323006,10.4839067,437.867035,991.510437,0,0.229000017,-10.0441303,0.952543736,-4.79808378,3.82337165,-5.24604654,-2.87082791,0.995984197,1.00800002,-1.60000002,-1.60000002,-3,-0.200000003,0,0,3.0999999,3,2.5,0,0,0,0,0,0,0,-0.0387000404,-0.312533975,-0.232200235,-1.86549962,-0.232200235,0,-0,-1.87520385,0.00970421545,-0,1461,1951,1457,1396,6,-6,21.6700001,0,0.0199999996,0.540000021,0,0,1,-0.00700035691,0.00148492469
9.381727,1783678213.420819,161,-6.64282656,-2.37281322,0.0250301361,0,0.194197148,-0.076068975,0.907051623,-25.6335793,-16.5308342,4.62232161,437.917023,991.50824,0,0.308000028,-4.79383516,12.0433893,-3.5605731,3.3091805,-1.23326206,8.73420906,0.995984197,1.00800002,-1.60000002,-1.60000002,-3,-0.200000003,0,0,3.0999999,3,2.5,0.0648874715,0.0085171191,-0.0128823286,6.54065734e-05,8.58525618e-06,0,0,-0.0387000404,-0.312533975,-0.232200235,-1.86549962,-0.232200235,0,-0,-1.87520385,0.00970421545,-0,1461,1951,1457,1396,6,-6,21.6700001,0,0.0199999996,0.540000021,0,0,1,-0.00700035691,0.00148492469
9.445572,1783678213.484664,162,-5.71574402,-2.05988312,0.305929184,0,0.19656457,-0.117272481,1.05527115,-30.16712,-13.3047667,-5.87207985,437.96701,991.50824,0,0.435000032,-6.3412714,10.4883986,-2.62349844,3.62961507,-3.71777296,6.85878372,0.995980263,1.00899994,-1.60000002,-1.60000002,-3,-0.200000003,0,0,3.0999999,3,2.5,0,0,0,0,0,0,0,-0.0387000404,-0.312533975,-0.232200235,-1.86549962,-0.232200235,0,-0,-1.87520385,0.00970421545,-0,1461,1951,1457,1396,6,-6,21.6700001,0,0.0199999996,0.540000021,0,0,1,-0.0647002682,0.225496352
9.477605,1783678213.516697,163,-4.28454113,-2.17183828,-0.0621185303,0,-0.115451947,-0.0324550718,0.951139808,-18.042263,0.632895947,-14.9340668,438.017029,991.50824,0,0.0680000037,-1.95430517,-6.91687393,-1.20415294,3.58846045,-0.75015223,-10.5053349,0.995884955,1.03299999,-1.60000002,-1.60000002,-3,-0.200000003,0,0,3.0999999,3,2.5,0.0144789796,0.00576141197,-0.00632349029,1.4956785e-05,5.95153824e-06,0,0,-0.0387000404,-0.312533975,-0.232200235,-1.86549962,-0.232200235,0,-0,-1.87520385,0.00970421545,-0,1461,1951,1457,1396,6,-6,21.6700001,0,0.0199999996,0.540000021,0,0,1,-0.0647002682,0.225496352
9.541327,1783678213.580419,164,-3.77285242,-1.03137541,-0.988239288,0,0.21422565,-0.0115256561,1.00259626,-9.6084795,4.02273178,-22.1473141,438.067017,991.50824,0,0.626000047,-0.658632398,12.0602999,-0.695700288,4.65595865,0.0370678902,7.40434122,0.995984197,1.00800002,-1.60000002,-1.60000002,-3,-0.200000003,0,0,3.0999999,3,2.5,0,0,0,0,0,0,0,-0.0387000404,-0.312533975,-0.232200235,-1.86549962,-0.232200235,0,-0,-1.87520385,0.00970421545,-0,1461,1951,1457,1396,6,-6,21.6700001,0,0.0199999996,0.540000021,0,0,1,-0.0647002682,0.225496352
9.604297,1783678213.643389,165,-3.57344961,-0.678082943,-2.25697517,0,0.150669277,-0.00276142801,0.938606024,4.15437698,11.5167351,-26.7556744,438.117035,991.50824,0,0.236000016,-0.168566689,9.11953831,-0.497469306,5.02253342,0.328902602,4.09700489,0.995984197,1.00800002,-1.60000002,-1.60000002,-3,-0.200000003,0,0,3.0999999,3,2.5,0,0,0,0,0,0,0,-0.0387000404,-0.312533975,-0.232200235,-1.86549962,-0.232200235,0,-0,-1.87520385,0.00970421545,-0,1461,1951,1457,1396,6,-6,21.6700001,0,0.0199999996,0.540000021,0,0,1,0.0475175753,0.0377594978
9.666853,1783678213.705945,166,-3.80981064,0.344119072,-3.680439,0,0.259200752,0.445713043,1.15272272,17.0388126,4.85059023,-43.6850815,438.167023,992.977356,0,0.675000012,21.1395493,11.8448315,-0.836882114,6.03358841,21.9764309,5.81124306,0.995250702,1.19299996,-1.60000002,-1.60000002,-3,-0.200000003,0,0,3.0999999,3,2.5,0.0661838427,0.0873334184,0.0775675997,5.43369351e-05,7.17007351e-05,0,0,-0.0387000404,-0.312533975,-0.232200235,-1.86549962,-0.232200235,0,-0,-1.87520385,0.00970421545,-0,1461,1951,1457,1396,6,-6,21.6700001,0,0.0199999996,0.540000021,0,0,1,0.0475175753,0.0377594978
9.728580,1783678213.767672,167,-2.80041885,-1.10854864,-3.41214371,0,0.0534321554,0.468163073,1.89273965,43.8155899,5.27505589,-15.8254957,438.21701,992.977356,0,0.447000027,13.8930788,1.56975245,0.221981734,4.62077236,13.6710968,-3.05101991,0.995984197,1.00800002,-1.60000002,-1.60000002,-3,-0.200000003,0,0,3.0999999,3,2.5,0,2.86102306e-08,0,0,5.76709583e-11,0,0,-0.0387000404,-0.312533975,-0.232200235,-1.86549962,-0.232200235,0,-0,-1.87520385,0.00970421545,-0,1461,1951,1457,1396,6,-6,21.6700001,0,0.0199999996,0.540000021,0,0,1,0.0475175753,0.0377594978
9.791782,1783678213.830874,168,-3.40058947,-1.82982373,-3.46594048,0,0.0582515113,0.0863862112,0.748974323,37.2606125,-11.7237291,11.2209616,438.267029,992.977356,0,0.0850000009,6.57938528,4.41805649,-0.349822581,3.88520432,6.9292078,0.532852173,0.9961707,0.960999966,-1.60000002,-1.60000002,-3,-0.200000003,0,0,3.0999999,3,2.5,-0.00202622311,-0.00438366691,0.0131682307,0.00318851834,-0.0151419537,0,0,-0.0387000404,-0.312533975,-0.232200235,-1.86549962,-0.232200235,0,-0,-1.87520385,0.00970421545,-0,1461,1951,1457,1396,6,-6,21.6700001,0,0.0199999996,0.540000021,0,0,1,0.0398808196,-0.18922177
9.821804,1783678213.860896,169,-4.03221369,-2.18200421,-3.48885918,0,0.332657725,0.142034918,0.871902645,31.1362858,-10.5147181,-15.4490376,438.317017,992.977356,0,0.61500001,9.25234032,20.6347198,-0.996068418,3.46611881,10.2484083,17.168602,0.995984197,1.00800002,-1.60000002,-1.60000002,-3,-0.200000003,0,0,3.0999999,3,2.5,0,0,0,-0.00281711342,-0.00512511004,0,0,-0.0387000404,-0.312533975,-0.232200235,-1.86549962,-0.232200235,0,-0,-1.87520385,0.00970421545,-0,1461,1951,1457,1396,6,-6,21.6700001,0,0.0199999996,0.540000021,0,0,1,-0.0352139175,-0.0640638769
9.884423,1783678213.923515,170,-4.46074057,-2.9425106,-4.27132797,0,0.0887583718,0.0151454024,1.16651309,36.8041954,-5.5502038,-13.4456596,438.367035,992.977356,0,0.223000005,0.743856966,4.35080767,-1.39202523,2.76819634,2.13588214,1.58261132,0.995980263,1.00899994,-1.60000002,-1.60000002,-3,-0.200000003,0,0,3.0999999,3,2.5,0,0,0,-0.00417475728,-0.0168008562,0,0,-0.0387000404,-0.312533975,-0.232200235,-1.86549962,-0.232200235,0,-0,-1.87520385,0.00970421545,-0,1461,1951,1457,1396,6,-6,21.6700001,0,0.0199999996,0.540000021,0,0,1,-0.05218447,-0.210010707
9.944645,1783678213.983737,171,-5.95140648,-3.2947135,-4.96546364,0,0.036404483,-0.0202872977,1.28850627,11.1022768,4.3813405,-8.53313637,438.417023,991.984436,0,0.820000052,-0.902037144,1.61816061,-2.88206458,2.42560101,1.98002744,-0.8074404,0.995980263,1.00899994,-1.60000002,-1.60000002,-3,-0.200000003,0,0,3.0999999,3,2.5,0,0,0,0,0,0,0,-0.0387000404,-0.312533975,-0.232200235,-1.86549962,-0.232200235,0,-0,-1.87520385,0.00970421545,-0,1461,1951,1457,1396,6,-6,21.6700001,0,0.0199999996,0.540000021,0,0,1,-0.05218447,-0.210010707
10.006331,1783678214.045423,172,-6.19670057,-3.16804504,-5.3983345,0,-0.0334433392,-0.017141249,0.876564264,5.4923048,7.63038254,-0.418695748,438.46701,991.984436,0,0.413000017,-1.12027848,-2.18451476,-3.12746,2.56810927,2.00718164,-4.75262403,0.995984197,1.00800002,-1.60000002,-1.60000002,-3,-0.200000003,0,0,3.0999999,3,2.5,0,0,0,0.00388625846,-0.00402202317,0,0,-0.0387000404,-0.312533975,-0.232200235,-1.86549962,-0.232200235,0,-0,-1.87520385,0.00970421545,-0,1461,1951,1457,1396,6,-6,21.6700001,0,0.0199999996,0.540000021,0,0,1,0.0485782325,-0.0502752885
10.069124,1783678214.108215,173,-5.7088151,-3.51415062,-5.42971039,0,0.138416871,-0.0415819772,0.990695655,1.09797919,1.23994088,5.77098274,438.517029,991.984436,0,0.0690000057,-2.40343666,7.94679117,-2.63237977,2.18111444,0.22894311,5.7656765,0.996218383,0.949000001,-1.60000002,-1.60000002,-3,-0.200000003,0,0,3.0999999,3,2.5,0.00430365838,0.000898039376,-0.00759801874,0.000801700633,-0.00106829312,0,0,-0.0387000404,-0.312533975,-0.232200235,-1.86549962,-0.232200235,0,-0,-1.87520385,0.00970421545,-0,1461,1951,1457,1396,6,-6,21.6700001,0,0.0199999996,0.540000021,0,0,1,0.00997020584,-0.0133643178
10.191851,1783678214.230943,174,1461,-7.62109375,-5.20682907,0,0.0583316498,-0.0672567412,1.08693492,-1.81367719,7.52017117,8.50657272,438.617035,991.984436,0,0.198000014,-3.54080153,3.06604624,-1.92229033,2.54541922,-1.6185112,0.520627022,0.995984197,1.00800002,-1.60000002,-1.60000002,-3,-0.200000003,0,0,3.0999999,3,2.5,0,0,0,-0.000220617294,-0.000220617294,0,0,-0.0387000404,-0.312533975,-0.232200235,-1.86549962,-0.232200235,0,-0,-1.87520385,0.00970421545,-0,1461,1951,1457,1396,6,-6,21.6700001,0,0.0199999996,0.540000021,0,0,1,-0.00275771623,-0.00275771623
10.222904,1783678214.261996,175,-5.53996754,-2.4927783,-4.72878075,0,0.0586669445,-0.073866196,0.992544055,-0.645040154,2.78537035,7.22712469,438.667023,991.916687,0,0.768000007,-4.25616741,3.37337613,-2.45523405,3.22367239,-1.80093336,0.149703741,0.995873153,1.03600001,-1.60000002,-1.60000002,-3,-0.200000003,0,0,3.0999999,3,2.5,0,0,0,-3.39411199e-05,-0.000678822456,0,0,-0.0387000404,-0.312533975,-0.232200235,-1.86549962,-0.232200235,0,-0,-1.87520385,0.00970421545,-0,1461,1951,1457,1396,6,-6,21.6700001,0,0.0199999996,0.540000021,0,0,1,-0.000424263999,-0.00848528091
10.284539,1783678214.323631,176,-6.01875973,-2.04009843,-3.81945229,0,-0.08617948,-0.0130019039,1.11573422,-4.28862906,-0.883302689,0.522025108,438.71701,991.916687,0,0.380000025,-0.667650521,-4.41646671,-2.95064497,3.70966768,2.28299451,-8.12613487,0.995976269,1.00999999,-1.60000002,-1.60000002,-3,-0.200000003,0,0,3.0999999,3,2.5,0,0,0,0.000475175679,-0.00128976267,0,0,-0.0387000404,-0.312533975,-0.232200235,-1.86549962,-0.232200235,0,-0,-1.87520385,0.00970421545,-0,1461,1951,1457,1396,6,-6,21.6700001,0,0.0199999996,0.540000021,0,0,1,0.00593969598,-0.0161220338
10.346119,1783678214.385211,177,-6.46581125,-1.89057922,-2.5827446,0,0.146811023,-0.112447239,1.02820528,-1.03416634,8.87154961,34.5960236,438.767029,991.916687,0,0.0680000037,-6.24121475,8.07845783,-3.37760139,3.81022978,-2.86361337,4.26822805,0.996190548,0.95600003,-1.60000002,-1.60000002,-3,-0.200000003,0,0,3.0999999,3,2.5,-0.0102628758,-0.000171954642,0.00383995078,-0.00209719036,-0.00276636612,0,0,-0.0387000404,-0.312533975,-0.232200235,-1.86549962,-0.232200235,0,-0,-1.87520385,0.00970421545,-0,1461,1951,1457,1396,6,-6,21.6700001,0,0.0199999996,0.540000021,0,0,1,-0.0260922387,-0.0345775224
10.408468,1783678214.447560,178,-7.10584831,-1.22995806,-0.999887466,0,0.0635662898,-0.0720459074,1.04159141,2.58558226,6.4469471,35.1724014,438.817017,991.916687,0,0.574000001,-3.95679355,3.48401427,-4.02883673,4.49115896,0.0720431805,-1.00714469,0.995980263,1.00899994,-1.60000002,-1.60000002,-3,-0.200000003,0,0,3.0999999,3,2.5,0,0,0,-0.00339411222,-0.00373352366,0,0,-0.0387000404,-0.312533975,-0.232200235,-1.86549962,-0.232200235,0,-0,-1.87520385,0.00970421545,-0,1461,1951,1457,1396,6,-6,21.6700001,0,0.0199999996,0.540000021,0,0,1,-0.0424264036,-0.0466690473
10.471874,1783678214.510966,179,-7.53813601,-0.831123829,0.659763336,0,0.233565465,-0.063677825,0.99230516,6.92588711,8.22399902,17.5946198,438.867035,991.916687,0,0.168000013,-3.6717279,13.2187681,-4.46401978,4.852314,0.79229188,8.36645412,0.995980263,1.00899994,-1.60000002,-1.60000002,-3,-0.200000003,0,0,3.0999999,3,2.5,0,0,0,-0.00225708424,-0.00751795853,0,0,-0.0387000404,-0.312533975,-0.232200235,-1.86549962,-0.232200235,0,-0,-1.87520385,0.00970421545,-0,1461,1951,1457,1396,6,-6,21.6700001,0,0.0199999996,0.540000021,0,0,1,-0.0282135531,-0.093974486
10.544496,1783678214.583588,180,-8.01926804,-0.494742393,0.524271011,0,0.0362817869,-0.10921485,0.960171759,9.10796356,8.33473778,-23.1978149,438.917023,991.892883,0,0.771000028,-6.48922539,2.15014148,-4.93572187,5.23472548,-1.55350351,-3.084584,0.995980263,1.00899994,-1.60000002,-1.60000002,-3,-0.200000003,0,0,3.0999999,3,2.5,0,0,0,0,0,0,0,-0.0387000404,-0.312533975,-0.232200235,-1.86549962,-0.232200235,0,-0,-1.87520385,0.00970421545,-0,1461,1951,1457,1396,6,-6,21.6700001,0,0.0199999996,0.540000021,0,0,1,-0.0282135531,-0.093974486
10.582575,1783678214.621667,181,-8.50812912,0.144107819,-1.39706421,0,0.0958379135,-0.075381875,0.892355144,5.47582197,7.55622911,-47.8156509,438.96701,991.892883,0,0.359000027,-4.82860804,6.10841274,-5.43324709,5.86018372,0.604639053,0.248229027,0.996000051,1.00399995,-1.60000002,-1.60000002,-3,-0.200000003,0,0,3.0999999,3,2.5,0,0,0,0,0,0,0,-0.0387000404,-0.312533975,-0.232200235,-1.86549962,-0.232200235,0,-0,-1.87520385,0.00970421545,-0,1461,1951,1457,1396,6,-6,21.6700001,0,0.0199999996,0.540000021,0,0,1,-0.0282135531,-0.093974486
10.646275,1783678214.685367,182,-8.61300468,0.779541016,-3.63961792,0,0.204368636,-0.0697127879,0.912299931,3.66563535,5.0250659,-32.7754707,439.017029,991.892883,0,0.0670000017,-4.36972666,12.5911102,-5.54019547,6.47313356,1.17046881,6.11797667,0.996162772,0.963,-1.60000002,-1.60000002,-3,-0.200000003,0,0,3.0999999,3,2.5,0.00105873588,-0.0119946711,0.0037528039,1.01956266e-06,-1.15508683e-05,0,0,-0.0387000404,-0.312533975,-0.232200235,-1.86549962,-0.232200235,0,-0,-1.87520385,0.00970421545,-0,1461,1951,1457,1396,6,-6,21.6700001,0,0.0199999996,0.540000021,0,0,1,0.00212132023,-0.00127279211
10.709306,1783678214.748398,183,-7.47281551,0.657561302,-3.69617081,0,0.0784935877,0.0563132726,1.00003159,1.82310987,-0.423560351,24.409317,439.067017,991.892883,0,0.542000055,3.22300696,4.48093796,-4.42623234,6.38226557,7.64923954,-1.90132761,0.995984197,1.00800002,-1.60000002,-1.60000002,-3,-0.200000003,0,0,3.0999999,3,2.5,0,0,0,0,0,0,0,-0.0387000404,-0.312533975,-0.232200235,-1.86549962,-0.232200235,0,-0,-1.87520385,0.00970421545,-0,1461,1951,1457,1396,6,-6,21.6700001,0,0.0199999996,0.540000021,0,0,1,-0.000212132174,-0.00190918823
10.740191,1783678214.779283,184,-5.74090958,-0.493461609,-2.00016975,0,0.0154049732,0.050259199,1.03141332,-0.452030629,-11.2263412,35.5914497,439.117035,991.892883,0,0.133000001,2.7897296,0.854680181,-2.68561792,5.24124002,5.47534752,-4.38655996,0.995980263,1.00899994,-1.60000002,-1.60000002,-3,-0.200000003,0,0,3.0999999,3,2.5,0,0,0,3.3941109e-05,-0.000237587868,0,0,-0.0387000404,-0.312533975,-0.232200235,-1.86549962,-0.232200235,0,-0,-1.87520385,0.00970421545,-0,1461,1951,1457,1396,6,-6,21.6700001,0,0.0199999996,0.540000021,0,0,1,0.000424263882,-0.00296984846
10.804167,1783678214.843259,185,-4.49891472,-1.85564685,-0.410730362,0,0.0554030687,0.0596743971,1.0306164,-2.34896207,-13.7846823,28.1461468,439.167023,991.833374,0,0.725000024,3.3138206,3.0719645,-1.44072568,3.86460805,4.75454617,-0.792643547,0.995980263,1.00899994,-1.60000002,-1.60000002,-3,-0.200000003,0,0,3.0999999,3,2.5,0,0,0,-0.000118793927,0.00015273504,0,0,-0.0387000404,-0.312533975,-0.232200235,-1.86549962,-0.232200235,0,-0,-1.87520385,0.00970421545,-0,1461,1951,1457,1396,6,-6,21.6700001,0,0.0199999996,0.540000021,0,0,1,-0.00148492411,0.00190918811
10.867625,1783678214.906717,186,-4.09941006,-2.33875179,0.806728363,0,0.0926431492,-0.0191761833,1.0409987,-1.38354278,-9.74126148,17.342392,439.21701,991.833374,0,0.311000019,-1.05532324,5.08475304,-1.02197468,3.37142301,-0.0333485603,1.71333003,0.995976269,1.00999999,-1.60000002,-1.60000002,-3,-0.200000003,0,0,3.0999999,3,2.5,0,0,0,0,0,0,0,-0.0387000404,-0.312533975,-0.232200235,-1.86549962,-0.232200235,0,-0,-1.87520385,0.00970421545,-0,1461,1951,1457,1396,6,-6,21.6700001,0,0.0199999996,0.540000021,0,0,1,-0.00148492411,0.00190918811
10.929687,1783678214.968779,187,-4.23396015,-2.09547544,1.19533157,0,0.109131724,-0.0195869729,1.04196978,3.41186261,-1.2259748,-0.808145225,439.267029,991.833374,0,0.0700000003,-1.07692063,5.9780817,-1.15696073,3.61268568,0.0800400972,2.36539602,0.996234238,0.944999993,-1.60000002,-1.60000002,-3,-0.200000003,0,0,3.0999999,3,2.5,-0.00475479849,-0.00315140258,-0.00249681482,-4.49328445e-06,-2.97807537e-06,0,0,-0.0387000404,-0.312533975,-0.232200235,-1.86549962,-0.232200235,0,-0,-1.87520385,0.00970421545,-0,1461,1951,1457,1396,6,-6,21.6700001,0,0.0199999996,0.540000021,0,0,1,-0.00148492411,0.00190918811
10.991573,1783678215.030664,188,-4.59535742,-1.7155757,0.888299942,0,0.104446419,-0.0500496142,0.989143968,4.61733437,7.64827299,-9.25779057,439.317017,991.833374,0,0.496000022,-2.8966341,6.02003765,-1.51249242,3.99334645,-1.38414168,2.0266912,0.995980263,1.00899994,-1.60000002,-1.60000002,-3,-0.200000003,0,0,3.0999999,3,2.5,0,0,0,0,0,0,0,-0.0387000404,-0.312533975,-0.232200235,-1.86549962,-0.232200235,0,-0,-1.87520385,0.00970421545,-0,1461,1951,1457,1396,6,-6,21.6700001,0,0.0199999996,0.540000021,0,0,1,0.000636396348,0.00445477245
11.055125,1783678215.094217,189,-4.61540699,-0.727336884,0.465553284,0,0.0994767845,0.0482027866,0.905362546,4.60423708,7.22446632,-4.12879181,439.367035,991.833374,0,0.0780000016,3.04763126,6.26142931,-1.55661368,4.98459911,4.60424519,1.2768302,0.995980263,1.00899994,-1.60000002,-1.60000002,-3,-0.200000003,0,0,3.0999999,3,2.5,0,0,0,0,0,0,0,-0.0387000404,-0.312533975,-0.232200235,-1.86549962,-0.232200235,0,-0,-1.87520385,0.00970421545,-0,1461,1951,1457,1396,6,-6,21.6700001,0,0.0199999996,0.540000021,0,0,1,0.000636396057,-0.00233345223
11.085125,1783678215.124217,190,-3.77476501,-0.584114075,0.790367126,0,0.0346240848,0.104053713,0.976817131,3.13671541,1.77946877,19.4793777,439.417023,991.833374,0,0.683000028,6.08040237,2.0186348,-0.724819183,5.14552402,6.80522156,-3.12688923,0.995980263,1.00899994,-1.60000002,-1.60000002,-3,-0.200000003,0,0,3.0999999,3,2.5,0,0,0,-0.000254558428,0.000152735069,0,0,-0.0387000404,-0.312533975,-0.232200235,-1.86549962,-0.232200235,0,-0,-1.87520385,0.00970421545,-0,1461,1951,1457,1396,6,-6,21.6700001,0,0.0199999996,0.540000021,0,0,1,-0.00318198046,0.00190918834
11.161718,1783678215.200810,191,-2.67490745,-1.74524856,2.06550789,0,-0.0480424538,0.0819182768,0.993757308,-3.03908801,-4.81076574,25.9957161,439.46701,991.833374,0,0.278000027,4.71240139,-2.758425,0.38499853,3.99898314,4.32740307,-6.75740814,0.995980263,1.00899994,-1.60000002,-1.60000002,-3,-0.200000003,0,0,3.0999999,3,2.5,0,0,0,0,0,0,0,-0.0387000404,-0.312533975,-0.232200235,-1.86549962,-0.232200235,0,-0,-1.87520385,0.00970421545,-0,1461,1951,1457,1396,6,-6,21.6700001,0,0.0199999996,0.540000021,0,0,1,-0.00318198046,0.00190918834
11.222928,1783678215.262019,192,-1.6319896,-3.11172915,3.07610893,0,-0.0314966515,0.0659029037,0.975483358,-8.38308525,-6.51187277,13.4943199,439.517029,991.833374,0,0.876000047,3.86498547,-1.84513485,1.43557465,2.6232481,2.42941093,-4.46838284,0.995992124,1.00599992,-1.60000002,-1.60000002,-3,-0.200000003,0,0,3.0999999,3,2.5,0.000476632151,-0.00309477584,0.00106390007,-0.0031051347,0.0087027885,0,0,-0.0387000404,-0.312533975,-0.232200235,-1.86549962,-0.232200235,0,-0,-1.87520385,0.00970421545,-0,1461,1951,1457,1396,6,-6,21.6700001,0,0.0199999996,0.540000021,0,0,1,-0.0388201699,0.108823739
11.286365,1783678215.325456,193,-0.525099516,-3.51844454,3.54132366,0,0.0815446749,0.10785877,0.968504667,-7.57166529,-11.3255157,9.71903801,439.567017,991.833374,0,0.481000036,6.35463333,4.78331852,2.53685498,2.18819237,3.81777835,2.59512615,0.995980263,1.00899994,-1.60000002,-1.60000002,-3,-0.200000003,0,0,3.0999999,3,2.5,0,0,0,-0.00254558469,-0.00770463562,0,0,-0.0387000404,-0.312533975,-0.232200235,-1.86549962,-0.232200235,0,-0,-1.87520385,0.00970421545,-0,1461,1951,1457,1396,6,-6,21.6700001,0,0.0199999996,0.540000021,0,0,1,-0.0318198092,-0.0963079482
11.316371,1783678215.355463,194,0.681287766,-4.21160173,3.82107925,0,0.0488456637,0.168191418,1.0789485,-2.57141376,-3.50925088,0.570840657,439.617035,991.833374,0,0.113000005,8.860219,2.56120849,3.73799896,1.50120604,5.12222004,1.06000245,0.995980263,1.00899994,-1.60000002,-1.60000002,-3,-0.200000003,0,0,3.0999999,3,2.5,0,0,0,-0.00600757869,-0.00797616411,0,0,-0.0387000404,-0.312533975,-0.232200235,-1.86549962,-0.232200235,0,-0,-1.87520385,0.00970421545,-0,1461,1951,1457,1396,6,-6,21.6700001,0,0.0199999996,0.540000021,0,0,1,-0.0750947371,-0.0997020528
11.379705,1783678215.418797,195,1.81439781,-4.22704887,3.83339977,0,-0.00903491769,0.168493509,0.938870728,0.055113934,-2.09382892,2.188797,439.667023,991.948425,0,0.641000032,10.1742249,-0.542680919,4.86978674,1.49845171,5.30443811,-2.04113269,0.9958691,1.03699994,-1.60000002,-1.60000002,-3,-0.200000003,0,0,3.0999999,3,2.5,0,0,0,0,0,0,0,-0.0387000404,-0.312533975,-0.232200235,-1.86549962,-0.232200235,0,-0,-1.87520385,0.00970421545,-0,1461,1951,1457,1396,6,-6,21.6700001,0,0.0199999996,0.540000021,0,0,1,-0.0103944698,0.0103944698
11.473045,1783678215.512136,196,-3.9881773,-0.0757927895,4.30454445,0,0.121986501,-0.0158174876,1.04839849,2.33430362,1.43413389,-25.4433823,440.517029,991.900818,0,0.851000011,-0.864372253,6.6360631,-0.911066115,5.63721704,0.0466938615,0.998846054,0.995936513,1.01999998,-1.60000002,-1.60000002,-3,-0.200000003,0,0,3.0999999,3,2.5,0.000258722313,-0.00396750914,-0.00177715311,2.57687418e-07,-3.95163897e-06,0,0,-0.0387000404,-0.312533975,-0.232200235,-1.86549962,-0.232200235,0,-0,-1.87520385,0.00970421545,-0,1461,1951,1457,1396,6,-6,21.6700001,0,0.0199999996,0.540000021,0,0,1,-0.0103944698,0.0103944698
11.534839,1783678215.573931,197,-4.23641872,0.560091019,3.02305412,0,0.10987214,-0.0281004608,1.04802883,9.20481777,6.31207561,-24.429985,440.567017,991.900818,0,0.451000035,-1.53588545,5.98271751,-1.15759683,6.27834797,-0.378288627,-0.295630455,0.995980263,1.00899994,-1.60000002,-1.60000002,-3,-0.200000003,0,0,3.0999999,3,2.5,0,0,0,-0.000271528959,3.39411199e-05,0,0,-0.0387000404,-0.312533975,-0.232200235,-1.86549962,-0.232200235,0,-0,-1.87520385,0.00970421545,-0,1461,1951,1457,1396,6,-6,21.6700001,0,0.0199999996,0.540000021,0,0,1,-0.00339411222,0.000424263999
11.611931,1783678215.651023,198,-4.86401701,0.90053606,1.93076134,0,0.0991804227,-0.0414298512,1.02238226,9.83370876,12.5352764,-17.2110424,440.617035,991.900818,0,0.0780000016,-2.32051921,5.53636122,-1.7845639,6.62196445,-0.53595531,-1.08560324,0.995984197,1.00800002,-1.60000002,-1.60000002,-3,-0.200000003,0,0,3.0999999,3,2.5,0,0,0,0,0,0,0,-0.0387000404,-0.312533975,-0.232200235,-1.86549962,-0.232200235,0,-0,-1.87520385,0.00970421545,-0,1461,1951,1457,1396,6,-6,21.6700001,0,0.0199999996,0.540000021,0,0,1,0.00190918823,0.000212132174
11.642742,1783678215.681834,199,-5.27281189,1.41345263,1.05652237,0,0.152512968,-0.019181896,0.869193971,13.5607786,18.8911896,-18.9639549,440.667023,991.984131,0,0.617000043,-1.26423264,9.94970989,-2.19936967,7.11883879,0.935137033,2.83087111,0.995873153,1.03600001,-1.60000002,-1.60000002,-3,-0.200000003,0,0,3.0999999,3,2.5,0,0,0,0,0,0,0,-0.0387000404,-0.312533975,-0.232200235,-1.86549962,-0.232200235,0,-0,-1.87520385,0.00970421545,-0,1461,1951,1457,1396,6,-6,21.6700001,0,0.0199999996,0.540000021,0,0,1,0.00190918823,0.000212132174
11.718497,1783678215.757589,200,-5.97846794,2.62486362,0.161851883,0,0.159119844,-0.0428451598,0.916696846,13.7048674,12.8075285,-17.6747913,440.71701,991.984131,0,0.23300001,-2.67597914,9.83673191,-2.90207577,8.33589935,0.22609663,1.50083256,0.995980263,1.00899994,-1.60000002,-1.60000002,-3,-0.200000003,0,0,3.0999999,3,2.5,0,0,0,-1.69705727e-05,-0.000152735054,0,0,-0.0387000404,-0.312533975,-0.232200235,-1.86549962,-0.232200235,0,-0,-1.87520385,0.00970421545,-0,1461,1951,1457,1396,6,-6,21.6700001,0,0.0199999996,0.540000021,0,0,1,-0.000212132174,-0.00190918823
11.749411,1783678215.788503,201,-6.33489895,3.22757721,-0.543010712,0,0.163558394,-0.0213553496,0.934925675,20.1967201,9.24789238,-9.1239748,440.767029,991.984131,0,0.842000067,-1.30850899,9.92052269,-3.26550341,8.94068813,1.95699441,0.979834557,0.995960414,1.01400006,-1.60000002,-1.60000002,-3,-0.200000003,0,0,3.0999999,3,2.5,0,0,0,0,0,0,0,-0.0387000404,-0.312533975,-0.232200235,-1.86549962,-0.232200235,0,-0,-1.87520385,0.00970421545,-0,1461,1951,1457,1396,6,-6,21.6700001,0,0.0199999996,0.540000021,0,0,1,-0.000212132174,-0.00190918823
11.826627,1783678215.865719,202,-7.08555174,3.44900227,-0.562065125,0,0.111669347,-0.0283200219,0.895612001,21.6724339,5.7299757,10.6297398,440.817017,991.984131,0,0.436000019,-1.81113839,7.10372877,-4.01711798,9.17439461,2.20597959,-2.07066584,0.995980263,1.00899994,-1.60000002,-1.60000002,-3,-0.200000003,0,0,3.0999999,3,2.5,0,0,0,0,0,0,0,-0.0387000404,-0.312533975,-0.232200235,-1.86549962,-0.232200235,0,-0,-1.87520385,0.00970421545,-0,1461,1951,1457,1396,6,-6,21.6700001,0,0.0199999996,0.540000021,0,0,1,-0.000212132174,-0.00190918823
11.889341,1783678215.928433,203,-7.53635645,3.31710529,0.955301285,0,0.000433800742,0.0198868643,1.03646076,26.691843,5.08094454,53.4019089,440.867035,991.984131,0,0.0950000063,1.09921539,0.0239761844,-4.48148823,9.07053852,5.58070374,-9.04656219,0.995980263,1.00899994,-1.60000002,-1.60000002,-3,-0.200000003,0,0,3.0999999,3,2.5,0,0,0,0,0,0,0,-0.0387000404,-0.312533975,-0.232200235,-1.86549962,-0.232200235,0,-0,-1.87520385,0.00970421545,-0,1461,1951,1457,1396,6,-6,21.6700001,0,0.0199999996,0.540000021,0,0,1,0.0422142707,-0.155492768
11.935237,1783678215.974329,204,-8.04988861,2.42723179,4.46109104,0,0.109428465,-0.0155861955,1.00020909,33.803936,1.4486196,75.6414261,440.917023,991.936523,0,0.631000042,-0.89276427,6.2428937,-4.98903704,8.15196705,4.09627295,-1.90907335,0.995984197,1.00800002,-1.60000002,-1.60000002,-3,-0.200000003,0,0,3.0999999,3,2.5,0,0,0,0,0,0,0,-0.0387000404,-0.312533975,-0.232200235,-1.86549962,-0.232200235,0,-0,-1.87520385,0.00970421545,-0,1461,1951,1457,1396,6,-6,21.6700001,0,0.0199999996,0.540000021,0,0,1,0.0422142707,-0.155492768
11.996489,1783678216.035581,205,-8.56002235,1.72289801,7.67113686,0,-0.0109108277,0.0447030663,1.07817352,27.587822,-8.51733494,56.3432465,440.96701,991.936523,0,0.215000004,2.37422895,-0.579300463,-5.51440001,7.47230053,7.88862896,-8.05160141,0.995984197,1.00800002,-1.60000002,-1.60000002,-3,-0.200000003,0,0,3.0999999,3,2.5,0,0,0,-6.78822544e-05,-0.000135764494,0,0,-0.0387000404,-0.312533975,-0.232200235,-1.86549962,-0.232200235,0,-0,-1.87520385,0.00970421545,-0,1461,1951,1457,1396,6,-6,21.6700001,0,0.0199999996,0.540000021,0,0,1,-0.000848528231,-0.00169705623
