pc_elapsed_s,pc_unix_s,frame_index,roll_deg,pitch_deg,yaw_deg,altitude_m,accel_x_g,accel_y_g,accel_z_g,gyro_x_dps,gyro_y_dps,gyro_z_dps,fc_time_s,imu_irq_hz,imu_poll_hz,imu_age_ms,roll_acc_deg,pitch_acc_deg,roll_gyro_deg,pitch_gyro_deg,roll_residual_deg,pitch_residual_deg,attitude_cf_alpha,attitude_dt_ms,coax_roll_rate_kd,coax_pitch_rate_kd,coax_yaw_angle_kp,coax_yaw_rate_kd,coax_vel_x_kd,coax_vel_y_kd,coax_vel_z_kd,coax_accel_xy_limit_m_s2,coax_accel_z_limit_m_s2,nav_acc_x_m_s2,nav_acc_y_m_s2,nav_acc_z_m_s2,vel_est_x_m_s,vel_est_y_m_s,vel_ref_x_m_s,vel_ref_y_m_s,vel_err_x_m_s,vel_err_y_m_s,vel_pid_out_x_m_s2,vel_pid_out_y_m_s2,vel_pid_p_x_m_s2,vel_pid_i_x_m_s2,vel_pid_d_x_m_s2,vel_pid_p_y_m_s2,vel_pid_i_y_m_s2,vel_pid_d_y_m_s2,servo_alpha_us,servo_beta_us,motor_upper_us,motor_lower_us,vel_loop_x_kp,vel_loop_y_kp,vel_loop_output_limit_m_s2,vel_loop_x_ki,vel_loop_y_ki,vel_loop_i_limit_m_s2,vel_loop_x_kd,vel_loop_y_kd,vel_loop_enable,flow_raw_vx_m_s,flow_raw_vy_m_s
0.134349,1783676942.661376,1,-3.01264882,-2.80241728,6.02291393,0,0.0487768054,0.00453020027,0.994030297,0.00711237313,0.00100934203,-0.018184064,66.4250031,991.72229,0,0.588,0.261118352,2.80920672,0.276738226,2.80976415,-0.015619874,-0.000557422638,0.995984197,1.00800002,-2.41000009,-2.5999999,-3,-0.200000003,0,0,3.0999999,3,2.5,9.86248269e-05,1.61781918e-06,-3.06701659e-05,-1.68711467e-05,1.69721916e-05,0,0,0.30779016,-0.465418607,1.49586022,-2.21955037,1.49586022,0,-0,-2.2340095,0.0144590661,0,1515,1875,1510,1316,4.86000013,-4.80000019,21.6700001,0,0.0199999996,0.540000021,0,0,1,-0.000212132014,0.000212132014
0.197654,1783676942.724681,2,-3.01301742,-2.80650115,6.02208519,0,0.0485175215,0.00490710279,0.993741214,0.00158195943,-0.0142654739,-0.0216466449,66.4750061,991.72229,0,0.168000013,0.282924771,2.79510379,0.276280165,2.80572081,0.00664460659,-0.0106170177,0.995984197,1.00800002,-2.41000009,-2.5999999,-3,-0.200000003,0,0,3.0999999,3,2.5,0.000218167319,-5.21175571e-05,0.000175266279,1.71904721e-05,1.69180257e-05,0,0,0.30779016,-0.465418607,1.49586022,-2.21955037,1.49586022,0,-0,-2.2340095,0.0144590661,0,1515,1875,1510,1316,4.86000013,-4.80000019,21.6700001,0,0.0199999996,0.540000021,0,0,1,0.000212132014,0.000212132014
0.259439,1783676942.786466,3,-3.01209235,-2.81389093,6.02173424,0,0.0481499657,0.00506422622,0.994826913,-0.0272737145,-0.00918515772,-0.0357066467,66.5250015,991.72229,0,0.761000037,0.291665107,2.77093744,0.277173787,2.79839873,0.0144913197,-0.0274612904,0.995984197,1.00800002,-2.41000009,-2.5999999,-3,-0.200000003,0,0,3.0999999,3,2.5,-0.000101770165,-7.41436379e-05,-2.76374831e-05,-1.02584323e-07,-3.40158549e-05,0,0,0.30779016,-0.465418607,1.49586022,-2.21955037,1.49586022,0,-0,-2.2340095,0.0144590661,0,1515,1875,1510,1316,4.86000013,-4.80000019,21.6700001,0,0.0199999996,0.540000021,0,0,1,-0,-0.000424264028
0.320718,1783676942.847745,4,-3.0083971,-2.81518888,6.0208559,0,0.0488829203,0.00472136308,0.994406283,-0.0430731401,-0.116335206,-0.0139010372,66.5750046,991.69458,0,0.330000013,0.272033811,2.81424284,0.280962139,2.79692245,-0.00892832875,0.0173203945,0.996083379,0.98300004,-2.41000009,-2.5999999,-3,-0.200000003,0,0,3.0999999,3,2.5,-3.54713229e-05,9.02344327e-05,-4.96101384e-05,-3.48683109e-08,8.87004532e-08,0,0,0.30779016,-0.465418607,1.49586022,-2.21955037,1.49586022,0,-0,-2.2340095,0.0144590661,0,1515,1875,1510,1316,4.86000013,-4.80000019,21.6700001,0,0.0199999996,0.540000021,0,0,1,-0,-0
0.352413,1783676942.879441,5,-3.00988722,-2.82034945,6.02041531,0,0.0483007506,0.00493792631,0.994963467,-0.0304698534,-0.00901751034,0.00373549201,66.625,991.69458,0,0.088000007,0.284352154,2.77922201,0.279417366,2.79188061,0.00493478775,-0.012658596,0.995984197,1.00800002,-2.41000009,-2.5999999,-3,-0.200000003,0,0,3.0999999,3,2.5,0,0,0,1.697056e-05,-1.697056e-05,0,0,0.30779016,-0.465418607,1.49586022,-2.21955037,1.49586022,0,-0,-2.2340095,0.0144590661,0,1515,1875,1510,1316,4.86000013,-4.80000019,21.6700001,0,0.0199999996,0.540000021,0,0,1,0.000212132014,-0.000212132014
0.415392,1783676942.942420,6,-3.00908327,-2.8188684,6.01932144,0,0.0489790738,0.00485497061,0.994163513,-0.0291917864,-0.0179032162,-0.0097067114,66.6750031,991.69458,0,0.526000023,0.279800177,2.82045507,0.280242652,2.79320145,-0.00044247508,0.0272536278,0.995984197,1.00800002,-2.41000009,-2.5999999,-3,-0.200000003,0,0,3.0999999,3,2.5,2.91520373e-05,-3.05577378e-05,0.000109462744,2.93852533e-08,-3.08021981e-08,0,0,0.30779016,-0.465418607,1.49586022,-2.21955037,1.49586022,0,-0,-2.2340095,0.0144590661,0,1515,1875,1510,1316,4.86000013,-4.80000019,21.6700001,0,0.0199999996,0.540000021,0,0,1,-0,-0
0.523908,1783676943.050935,7,-3.01061678,-2.81740046,6.01877975,0,0.0477097146,0.0041848328,0.994703889,-0.0289137959,-0.0023672164,-0.00338258967,66.7250061,991.69458,0,0.0980000049,0.241048485,2.74599099,0.278859347,2.79497552,-0.0378108621,-0.0489845276,0.995984197,1.00800002,-2.41000009,-2.5999999,-3,-0.200000003,0,0,3.0999999,3,2.5,1.53779984e-05,-7.70308106e-05,-6.29425085e-06,-1.69550585e-05,-1.70482072e-05,0,0,0.30779016,-0.465418607,1.49586022,-2.21955037,1.49586022,0,-0,-2.2340095,0.0144590661,0,1515,1875,1510,1316,4.86000013,-4.80000019,21.6700001,0,0.0199999996,0.540000021,0,0,1,-0.000212132014,-0.000212132014
0.554626,1783676943.081654,8,-3.00816727,-2.83171725,6.01846886,0,0.0483372323,0.00543962093,0.994426489,0.00348426774,0.0076649338,0.00934126414,66.7750015,991.69458,0,0.697000027,0.313411027,2.78280997,0.281026781,2.78045249,0.0323842466,0.00235748291,0.995980263,1.00899994,-2.41000009,-2.5999999,-3,-0.200000003,0,0,3.0999999,3,2.5,3.56698038e-05,2.16087701e-05,-0.000105457308,1.70065505e-05,-1.69487575e-05,0,0,0.30779016,-0.465418607,1.49586022,-2.21955037,1.49586022,0,-0,-2.2340095,0.0144590661,0,1515,1875,1510,1316,4.86000013,-4.80000019,21.6700001,0,0.0199999996,0.540000021,0,0,1,0.000212132014,-0.000212132014
0.617410,1783676943.144438,9,-3.00851226,-2.83272767,6.0179615,0,0.0478292517,0.00524576381,0.994601429,-0.00249571307,-0.0327961966,0.0297740679,66.8250046,991.710449,0,0.254000008,0.302188724,2.75312972,0.280725867,2.7795577,0.0214628577,-0.0264279842,0.995984197,1.00800002,-2.41000009,-2.5999999,-3,-0.200000003,0,0,3.0999999,3,2.5,-9.12469695e-05,2.65350955e-05,1.51062013e-05,-9.19769434e-08,2.67473759e-08,0,0,0.30779016,-0.465418607,1.49586022,-2.21955037,1.49586022,0,-0,-2.2340095,0.0144590661,0,1515,1875,1510,1316,4.86000013,-4.80000019,21.6700001,0,0.0199999996,0.540000021,0,0,1,-0,-0
0.679005,1783676943.206032,10,-3.00684333,-2.83910203,6.01724148,0,0.0482492521,0.00419321656,0.993966699,-0.00430366909,0.0069244625,0.0155921103,66.875,991.710449,0,0.869000018,0.241710499,2.7790525,0.282645315,2.77305317,-0.040934816,0.00599932671,0.995984197,1.00800002,-2.41000009,-2.5999999,-3,-0.200000003,0,0,3.0999999,3,2.5,0,0,0,1.697056e-05,-1.697056e-05,0,0,0.30779016,-0.465418607,1.49586022,-2.21955037,1.49586022,0,-0,-2.2340095,0.0144590661,0,1515,1875,1510,1316,4.86000013,-4.80000019,21.6700001,0,0.0199999996,0.540000021,0,0,1,0.000212132014,-0.000212132014
0.710762,1783676943.237789,11,-3.01076245,-2.82876253,6.01663876,0,0.048199106,0.00442369375,0.99414438,0.0250504352,-0.0311127137,0.00562647264,66.9250031,991.710449,0,0.427000016,0.254950196,2.77567077,0.278657109,2.78344798,-0.023706913,-0.00777721405,0.995984197,1.00800002,-2.41000009,-2.5999999,-3,-0.200000003,0,0,3.0999999,3,2.5,-0.000104262836,0.000124372018,3.32450873e-05,-5.10167811e-05,1.70959265e-05,0,0,0.30779016,-0.465418607,1.49586022,-2.21955037,1.49586022,0,-0,-2.2340095,0.0144590661,0,1515,1875,1510,1316,4.86000013,-4.80000019,21.6700001,0,0.0199999996,0.540000021,0,0,1,-0.000636396057,0.000212132014
0.771626,1783676943.298654,12,-3.01032448,-2.82560802,6.01623631,0,0.0492481515,0.00414560083,0.99451524,-0.00754602905,-0.0663897246,-0.0114475358,66.9750061,991.710449,0,0.0920000076,0.238834009,2.8349328,0.279160857,2.78637743,-0.0403268486,0.0485553741,0.996007919,1.00199997,-2.41000009,-2.5999999,-3,-0.200000003,0,0,3.0999999,3,2.5,0,0,0,-3.39411199e-05,0,0,0,0.30779016,-0.465418607,1.49586022,-2.21955037,1.49586022,0,-0,-2.2340095,0.0144590661,0,1515,1875,1510,1316,4.86000013,-4.80000019,21.6700001,0,0.0199999996,0.540000021,0,0,1,-0.000424264028,-0
0.833457,1783676943.360485,13,-3.00787568,-2.81507754,6.01544857,0,0.0492565408,0.00493866578,0.994332492,-0.0128248585,-0.046616137,-0.021996025,67.0250015,991.710449,0,0.612000048,0.284575224,2.83592463,0.281435966,2.79694486,0.00313925743,0.0389797688,0.995980263,1.00899994,-2.41000009,-2.5999999,-3,-0.200000003,0,0,3.0999999,3,2.5,-0.000191549072,-7.68117661e-06,8.50868237e-05,-3.41343912e-05,3.3933371e-05,0,0,0.30779016,-0.465418607,1.49586022,-2.21955037,1.49586022,0,-0,-2.2340095,0.0144590661,0,1515,1875,1510,1316,4.86000013,-4.80000019,21.6700001,0,0.0199999996,0.540000021,0,0,1,-0.000424264028,0.000424264028
0.896079,1783676943.423107,14,-3.0093534,-2.82286429,6.01478863,0,0.0478406549,0.00523233227,0.994791746,-0.0028684279,-0.0623666197,-0.0197122302,67.0750046,991.714417,0,0.187000006,0.301357329,2.75325942,0.279884636,2.78946042,0.0214726925,-0.0362010002,0.99598819,1.00699997,-2.41000009,-2.5999999,-3,-0.200000003,0,0,3.0999999,3,2.5,0.0002122593,-0.000109192064,-0.000101108555,-3.37273741e-05,-1.0995641e-07,0,0,0.30779016,-0.465418607,1.49586022,-2.21955037,1.49586022,0,-0,-2.2340095,0.0144590661,0,1515,1875,1510,1316,4.86000013,-4.80000019,21.6700001,0,0.0199999996,0.540000021,0,0,1,-0.000424264028,-0
0.959016,1783676943.486043,15,-3.00756693,-2.82008052,6.01410866,0,0.0496906675,0.0049502477,0.994514883,-0.00438075047,-0.0248644929,-0.0220302921,67.125,991.714417,0,0.78700006,0.285190284,2.86035419,0.281743616,2.79182386,0.00344666839,0.0685303211,0.99598819,1.00699997,-2.41000009,-2.5999999,-3,-0.200000003,0,0,3.0999999,3,2.5,0.000153965957,-4.58018512e-05,-0.000142650606,-5.07566401e-05,1.69244377e-05,0,0,0.30779016,-0.465418607,1.49586022,-2.21955037,1.49586022,0,-0,-2.2340095,0.0144590661,0,1515,1875,1510,1316,4.86000013,-4.80000019,21.6700001,0,0.0199999996,0.540000021,0,0,1,-0.000636396057,0.000212132014
1.022734,1783676943.549762,16,-3.0112114,-2.81499577,6.01338291,0,0.0496805236,0.00477876654,0.995039046,0.00802141707,-0.0603603609,-0.00174195855,67.1750031,991.714417,0,0.35800001,0.275166154,2.85826945,0.27812475,2.79693699,-0.00295859575,0.0613324642,0.995980263,1.00899994,-2.41000009,-2.5999999,-3,-0.200000003,0,0,3.0999999,3,2.5,8.18467161e-05,-0.00022717753,1.33323674e-05,-3.38585378e-05,3.37118981e-05,0,0,0.30779016,-0.465418607,1.49586022,-2.21955037,1.49586022,0,-0,-2.2340095,0.0144590661,0,1515,1875,1510,1316,4.86000013,-4.80000019,21.6700001,0,0.0199999996,0.540000021,0,0,1,-0.000424264028,0.000424264028
1.084383,1783676943.611411,17,-3.01282644,-2.81475902,6.01317215,0,0.0478371829,0.00423200428,0.993810356,0.00122526009,0.0389006734,-0.0374495313,67.2250061,991.714417,0,0.088000007,0.243984714,2.75578737,0.276629776,2.79758906,-0.0326450616,-0.0418016911,0.995960414,1.01400006,-2.41000009,-2.5999999,-3,-0.200000003,0,0,3.0999999,3,2.5,0,0,0,-3.39411199e-05,3.39411199e-05,0,0,0.30779016,-0.465418607,1.49586022,-2.21955037,1.49586022,0,-0,-2.2340095,0.0144590661,0,1515,1875,1510,1316,4.86000013,-4.80000019,21.6700001,0,0.0199999996,0.540000021,0,0,1,-0.000424264028,0.000424264028
1.116146,1783676943.643173,18,-3.0128994,-2.81427383,6.01222801,0,0.0482836664,0.00481136749,0.994394779,-0.0191723313,-0.0353674293,-3.99909914e-06,67.2750015,991.714417,0,0.550999999,0.277222782,2.77982855,0.276421696,2.7979784,0.000801086426,-0.0181498528,0.995984197,1.00800002,-2.41000009,-2.5999999,-3,-0.200000003,0,0,3.0999999,3,2.5,-0.000139194133,-6.20499995e-05,6.18553167e-05,3.3800814e-05,3.38785721e-05,0,0,0.30779016,-0.465418607,1.49586022,-2.21955037,1.49586022,0,-0,-2.2340095,0.0144590661,0,1515,1875,1510,1316,4.86000013,-4.80000019,21.6700001,0,0.0199999996,0.540000021,0,0,1,0.000424264028,0.000424264028
1.178902,1783676943.705930,19,-3.01378727,-2.81664777,6.01173592,0,0.0506072007,0.00501937838,0.994418383,-0.00506539457,-0.0620456114,0.0113289766,67.3250046,991.706482,0,0.0980000049,0.289200962,2.91330361,0.275481939,2.79505682,0.0137190223,0.118246794,0.995984197,1.00800002,-2.41000009,-2.5999999,-3,-0.200000003,0,0,3.0999999,3,2.5,0.000124284634,-0.000119437434,-5.74493424e-05,-3.38158425e-05,3.38207283e-05,0,0,0.30779016,-0.465418607,1.49586022,-2.21955037,1.49586022,0,-0,-2.2340095,0.0144590661,0,1515,1875,1510,1316,4.86000013,-4.80000019,21.6700001,0,0.0199999996,0.540000021,0,0,1,-0.000424264028,0.000424264028
1.240708,1783676943.767735,20,-3.01333666,-2.80849791,6.01105022,0,0.0490410328,0.00444953004,0.994517684,0.000456553884,-0.000764934346,-0.00452033384,67.375,991.706482,0,0.72300005,0.256342947,2.82301855,0.276066989,2.80360341,-0.0197240412,0.0194151402,0.995980263,1.00899994,-2.41000009,-2.5999999,-3,-0.200000003,0,0,3.0999999,3,2.5,-8.73845856e-05,1.92383686e-05,7.33566339e-05,-1.70587318e-05,5.09310958e-05,0,0,0.30779016,-0.465418607,1.49586022,-2.21955037,1.49586022,0,-0,-2.2340095,0.0144590661,0,1515,1875,1510,1316,4.86000013,-4.80000019,21.6700001,0,0.0199999996,0.540000021,0,0,1,-0.000212132014,0.000636396057
1.303395,1783676943.830422,21,-3.01370931,-2.80818105,6.01072788,0,0.0500189811,0.00464514364,0.994891405,-0.0220754314,0.0085228784,0.0127235036,67.4250031,991.706482,0,0.280000001,0.267511815,2.87813759,0.27564764,2.80369902,-0.0081358254,0.0744385719,0.995980263,1.00899994,-2.41000009,-2.5999999,-3,-0.200000003,0,0,3.0999999,3,2.5,0.000111769441,0.000121919147,1.05857853e-05,1.12775368e-07,-3.38181053e-05,0,0,0.30779016,-0.465418607,1.49586022,-2.21955037,1.49586022,0,-0,-2.2340095,0.0144590661,0,1515,1875,1510,1316,4.86000013,-4.80000019,21.6700001,0,0.0199999996,0.540000021,0,0,1,-0,-0.000424264028
1.365415,1783676943.892442,22,-3.01489949,-2.79861355,6.00986481,0,0.0491202697,0.00453160657,0.993915498,-0.0151173929,-0.0542506464,-0.0237045437,67.4750061,991.706482,0,0.899000049,0.261229575,2.82928157,0.274477929,2.81350231,-0.0132483542,0.0157792568,0.995984197,1.00800002,-2.41000009,-2.5999999,-3,-0.200000003,0,0,3.0999999,3,2.5,0,0,0,-1.697056e-05,-1.697056e-05,0,0,0.30779016,-0.465418607,1.49586022,-2.21955037,1.49586022,0,-0,-2.2340095,0.0144590661,0,1515,1875,1510,1316,4.86000013,-4.80000019,21.6700001,0,0.0199999996,0.540000021,0,0,1,-0.000212132014,-0.000212132014
1.428055,1783676943.955082,23,-3.01589966,-2.79520202,6.0094862,0,0.0490777083,0.00494400319,0.994322896,-0.0579530485,-0.0728185698,-0.00780453254,67.5250015,991.706482,0,0.45600003,0.284885526,2.82567263,0.273378313,2.81694221,0.0115072131,0.00873041153,0.995984197,1.00800002,-2.41000009,-2.5999999,-3,-0.200000003,0,0,3.0999999,3,2.5,-6.42335435e-05,1.98597463e-05,7.781983e-05,1.6905813e-05,-1.6950542e-05,0,0,0.30779016,-0.465418607,1.49586022,-2.21955037,1.49586022,0,-0,-2.2340095,0.0144590661,0,1515,1875,1510,1316,4.86000013,-4.80000019,21.6700001,0,0.0199999996,0.540000021,0,0,1,0.000212132014,-0.000212132014
1.489937,1783676944.016965,24,-3.0155766,-2.80354023,6.0085659,0,0.0488998629,0.00487622665,0.994208217,0.032826107,-0.0063038934,-0.0269788299,67.5750046,991.72229,0,0.0920000076,0.281012565,2.81577444,0.273717642,2.80860949,0.00729492307,0.00716495514,0.995877028,1.03499997,-2.41000009,-2.5999999,-3,-0.200000003,0,0,3.0999999,3,2.5,0,0,0,-1.697056e-05,-5.09116835e-05,0,0,0.30779016,-0.465418607,1.49586022,-2.21955037,1.49586022,0,-0,-2.2340095,0.0144590661,0,1515,1875,1510,1316,4.86000013,-4.80000019,21.6700001,0,0.0199999996,0.540000021,0,0,1,-0.000212132014,-0.000636396057
1.521667,1783676944.048695,25,-3.01183248,-2.79482794,6.00810337,0,0.0495802164,0.0054582255,0.994074285,-0.000812796876,-0.082923159,-0.00254286639,67.625,991.72229,0,0.640000045,0.314594358,2.8552618,0.277342141,2.81719828,0.0372522175,0.0380635262,0.995984197,1.00800002,-2.41000009,-2.5999999,-3,-0.200000003,0,0,3.0999999,3,2.5,-4.96208704e-05,0.000103225044,0.000131263732,-5.00178352e-08,1.04050841e-07,0,0,0.30779016,-0.465418607,1.49586022,-2.21955037,1.49586022,0,-0,-2.2340095,0.0144590661,0,1515,1875,1510,1316,4.86000013,-4.80000019,21.6700001,0,0.0199999996,0.540000021,0,0,1,-0,-0
1.584102,1783676944.111130,26,-3.00965786,-2.79415488,6.00753784,0,0.0486066528,0.00447198842,0.994443536,-0.00234761368,-0.0912618935,0.000842409208,67.6750031,991.72229,0,0.213000014,0.257656008,2.79826164,0.279755086,2.81810403,-0.0220990777,-0.0198423862,0.995984197,1.00800002,-2.41000009,-2.5999999,-3,-0.200000003,0,0,3.0999999,3,2.5,8.74704128e-05,8.98126527e-05,-9.2239381e-05,8.81701752e-08,9.05311524e-08,0,0,0.30779016,-0.465418607,1.49586022,-2.21955037,1.49586022,0,-0,-2.2340095,0.0144590661,0,1515,1875,1510,1316,4.86000013,-4.80000019,21.6700001,0,0.0199999996,0.540000021,0,0,1,-0,-0
1.646706,1783676944.173733,27,-3.01064515,-2.79434252,6.00688934,0,0.0501852967,0.00501314458,0.994346678,-0.0206524022,0.028248027,-0.0335669741,67.7250061,991.72229,0,0.812000036,0.288862616,2.88926554,0.278638124,2.81754899,0.0102244914,0.071716547,0.99598819,1.00699997,-2.41000009,-2.5999999,-3,-0.200000003,0,0,3.0999999,3,2.5,8.7023378e-05,0.000122781479,-0.000116558076,1.70581916e-05,1.70942003e-05,0,0,0.30779016,-0.465418607,1.49586022,-2.21955037,1.49586022,0,-0,-2.2340095,0.0144590661,0,1515,1875,1510,1316,4.86000013,-4.80000019,21.6700001,0,0.0199999996,0.540000021,0,0,1,0.000212132014,0.000212132014
1.709456,1783676944.236484,28,-3.01284218,-2.78118801,6.0061121,0,0.0502133816,0.00407712208,0.994070232,-0.020158032,0.00113759562,-0.0161708482,67.7750015,991.72229,0,0.382000029,0.234994054,2.89169455,0.276649773,2.83074617,-0.0416557193,0.0609483719,0.995976269,1.00999999,-2.41000009,-2.5999999,-3,-0.200000003,0,0,3.0999999,3,2.5,5.01251234e-05,3.22591513e-05,1.68800361e-05,-1.69199338e-05,-1.69379782e-05,0,0,0.30779016,-0.465418607,1.49586022,-2.21955037,1.49586022,0,-0,-2.2340095,0.0144590661,0,1515,1875,1510,1316,4.86000013,-4.80000019,21.6700001,0,0.0199999996,0.540000021,0,0,1,-0.000212132014,-0.000212132014
1.786236,1783676944.313263,29,-3.01212025,-2.78645205,6.00549412,0,0.0477839224,0.0050733923,0.994038284,0.0153605891,-0.0199332498,-0.049749814,67.8250046,991.555786,0,0.088000007,0.292424828,2.75208282,0.27714467,2.82601452,0.0152801573,-0.073931694,0.996111214,0.975999951,-2.41000009,-2.5999999,-3,-0.200000003,0,0,3.0999999,3,2.5,0,0,0,0,0,0,0,0.30779016,-0.465418607,1.49586022,-2.21955037,1.49586022,0,-0,-2.2340095,0.0144590661,0,1515,1875,1510,1316,4.86000013,-4.80000019,21.6700001,0,0.0199999996,0.540000021,0,0,1,-0,-0
1.817858,1783676944.344885,30,-3.01185203,-2.78579021,6.0042572,0,0.0500655957,0.00517315883,0.99337703,0.0264457017,0.000753291533,-0.0351555794,67.875,991.555786,0,0.574000001,0.29837361,2.88519216,0.277388066,2.82615185,0.0209855437,0.059040308,0.995984197,1.00800002,-2.41000009,-2.5999999,-3,-0.200000003,0,0,3.0999999,3,2.5,7.80826813e-05,0.000112997222,-2.0370484e-05,-1.68918523e-05,-1.68566585e-05,0,0,0.30779016,-0.465418607,1.49586022,-2.21955037,1.49586022,0,-0,-2.2340095,0.0144590661,0,1515,1875,1510,1316,4.86000013,-4.80000019,21.6700001,0,0.0199999996,0.540000021,0,0,1,-0.000212132014,-0.000212132014
1.879911,1783676944.406939,31,-3.00980854,-2.7763443,6.00321102,0,0.050004445,0.005042681,0.994137287,-0.0549973026,-0.0815591812,-0.0372822583,67.9250031,991.555786,0,0.131000012,0.290625721,2.87947583,0.279470861,2.83565903,0.0111548603,0.0438168049,0.995984197,1.00800002,-2.41000009,-2.5999999,-3,-0.200000003,0,0,3.0999999,3,2.5,2.17437764e-06,1.79249801e-05,-5.46455412e-05,2.19177254e-09,1.80683806e-08,0,0,0.30779016,-0.465418607,1.49586022,-2.21955037,1.49586022,0,-0,-2.2340095,0.0144590661,0,1515,1875,1510,1316,4.86000013,-4.80000019,21.6700001,0,0.0199999996,0.540000021,0,0,1,-0,-0
1.942568,1783676944.469595,32,-3.01258516,-2.77517152,6.0026226,0,0.0485140011,0.00454881508,0.994467378,0.00945338421,0.0508175045,-0.0396640226,67.9750061,991.555786,0,0.748000026,0.26207605,2.79286838,0.276798129,2.83718562,-0.014722079,-0.0443172455,0.99598819,1.00699997,-2.41000009,-2.5999999,-3,-0.200000003,0,0,3.0999999,3,2.5,-0.000133032212,-9.34682794e-06,-0.000119934084,-1.33963439e-07,-9.41225586e-09,0,0,0.30779016,-0.465418607,1.49586022,-2.21955037,1.49586022,0,-0,-2.2340095,0.0144590661,0,1515,1875,1510,1316,4.86000013,-4.80000019,21.6700001,0,0.0199999996,0.540000021,0,0,1,-0,-0
1.988149,1783676944.515177,33,-3.01093507,-2.77900481,6.00196934,0,0.0488071255,0.00432474166,0.993726254,-0.0141120348,-0.0888240784,-0.0081326291,68.0250015,991.555786,0,0.305000007,0.249352247,2.81181121,0.27850619,2.83326054,-0.0291539431,-0.0214493275,0.99598819,1.00699997,-2.41000009,-2.5999999,-3,-0.200000003,0,0,3.0999999,3,2.5,6.68585335e-06,3.23300083e-05,8.932114e-05,3.39478538e-05,3.39736762e-05,0,0,0.30779016,-0.465418607,1.49586022,-2.21955037,1.49586022,0,-0,-2.2340095,0.0144590661,0,1515,1875,1510,1316,4.86000013,-4.80000019,21.6700001,0,0.0199999996,0.540000021,0,0,1,0.000424264028,0.000424264028
2.050596,1783676944.577623,34,-3.00961518,-2.78197002,6.00133801,0,0.0491495207,0.0046802205,0.994429708,-0.0243652537,0.025666628,0.0120957866,68.0750046,991.674744,0,0.117000006,0.269656956,2.82950044,0.279749095,2.83021212,-0.0100921392,-0.000711679459,0.996043682,0.992999971,-2.41000009,-2.5999999,-3,-0.200000003,0,0,3.0999999,3,2.5,0,0,0,5.09116835e-05,1.697056e-05,0,0,0.30779016,-0.465418607,1.49586022,-2.21955037,1.49586022,0,-0,-2.2340095,0.0144590661,0,1515,1875,1510,1316,4.86000013,-4.80000019,21.6700001,0,0.0199999996,0.540000021,0,0,1,0.000636396057,0.000212132014
2.114356,1783676944.641384,35,-3.01002312,-2.77831459,6.00086403,0,0.0497975089,0.00478497893,0.993480325,-0.010003509,-0.0314086266,-0.00216340832,68.125,991.674744,0,0.476000011,0.275956124,2.86947632,0.279314637,2.83372116,-0.00335851312,0.0357551575,0.995984197,1.00800002,-2.41000009,-2.5999999,-3,-0.200000003,0,0,3.0999999,3,2.5,3.55142365e-05,-2.50214343e-05,0.000155239119,3.5798351e-08,-2.52216061e-08,0,0,0.30779016,-0.465418607,1.49586022,-2.21955037,1.49586022,0,-0,-2.2340095,0.0144590661,0,1515,1875,1510,1316,4.86000013,-4.80000019,21.6700001,0,0.0199999996,0.540000021,0,0,1,-0,-0
2.175143,1783676944.702170,36,-3.00910568,-2.77902722,6.00013733,0,0.0497754663,0.00493409159,0.994089723,0.00191131607,-0.00744503271,0.00408074353,68.1750031,991.674744,0,0.111000009,0.284381062,2.86645079,0.280201882,2.83301783,0.00417917967,0.0334329605,0.995984197,1.00800002,-2.41000009,-2.5999999,-3,-0.200000003,0,0,3.0999999,3,2.5,0.000115301016,-3.52013121e-05,8.33129889e-05,1.70867843e-05,1.69350769e-05,0,0,0.30779016,-0.465418607,1.49586022,-2.21955037,1.49586022,0,-0,-2.2340095,0.0144590661,0,1515,1875,1510,1316,4.86000013,-4.80000019,21.6700001,0,0.0199999996,0.540000021,0,0,1,0.000212132014,0.000212132014
2.207767,1783676944.734794,37,-3.00750566,-2.77087736,5.99931812,0,0.0490100272,0.00448152702,0.993883312,-0.0406746268,-0.116201982,-0.0381416455,68.2250061,991.674744,0,0.664000034,0.258351088,2.82303429,0.281913221,2.84137559,-0.0235621333,-0.0183413029,0.995984197,1.00800002,-2.41000009,-2.5999999,-3,-0.200000003,0,0,3.0999999,3,2.5,-1.81531905e-05,-8.489639e-05,3.98254415e-05,1.69522609e-05,1.68849838e-05,0,0,0.30779016,-0.465418607,1.49586022,-2.21955037,1.49586022,0,-0,-2.2340095,0.0144590661,0,1515,1875,1510,1316,4.86000013,-4.80000019,21.6700001,0,0.0199999996,0.540000021,0,0,1,0.000212132014,0.000212132014
2.270577,1783676944.797605,38,-3.00939822,-2.77617574,5.99780941,0,0.0490390658,0.00484602479,0.994209409,0.0245976187,0.00350995362,-0.0398012362,68.2750015,991.674744,0,0.236000016,0.279271722,2.8237741,0.279928625,2.83605289,-0.00065690279,-0.0122787952,0.995984197,1.00800002,-2.41000009,-2.5999999,-3,-0.200000003,0,0,3.0999999,3,2.5,2.01666371e-05,7.64849829e-05,6.12831136e-05,2.03279704e-08,7.7096864e-08,0,0,0.30779016,-0.465418607,1.49586022,-2.21955037,1.49586022,0,-0,-2.2340095,0.0144590661,0,1515,1875,1510,1316,4.86000013,-4.80000019,21.6700001,0,0.0199999996,0.540000021,0,0,1,-0,-0
2.331488,1783676944.858516,39,-3.01211524,-2.78233409,5.99694443,0,0.0501737408,0.00458594598,0.994616866,0.010021341,-0.015466176,0.0196258742,68.3250046,991.888916,0,0.839000046,0.264175564,2.88782406,0.277261645,2.82961154,-0.0130860806,0.0582125187,0.995984197,1.00800002,-2.41000009,-2.5999999,-3,-0.200000003,0,0,3.0999999,3,2.5,1.10542778e-05,3.48009926e-05,-4.23431411e-05,1.69817031e-05,-1.69354807e-05,0,0,0.30779016,-0.465418607,1.49586022,-2.21955037,1.49586022,0,-0,-2.2340095,0.0144590661,0,1515,1875,1510,1316,4.86000013,-4.80000019,21.6700001,0,0.0199999996,0.540000021,0,0,1,0.000212132014,-0.000212132014
2.394889,1783676944.921917,40,-3.01236343,-2.7807219,5.99670601,0,0.0499814488,0.00533057563,0.99412781,-0.00849627703,-0.0115095433,-0.0183732528,68.375,991.888916,0,0.410000026,0.307220638,2.87817693,0.276839018,2.83126926,0.0303816199,0.0469076633,0.99598819,1.00699997,-2.41000009,-2.5999999,-3,-0.200000003,0,0,3.0999999,3,2.5,0.000117090945,0.00014353999,3.41033956e-05,-1.68526494e-05,1.71151041e-05,0,0,0.30779016,-0.465418607,1.49586022,-2.21955037,1.49586022,0,-0,-2.2340095,0.0144590661,0,1515,1875,1510,1316,4.86000013,-4.80000019,21.6700001,0,0.0199999996,0.540000021,0,0,1,-0.000212132014,0.000212132014
2.457273,1783676944.984300,41,-3.01508904,-2.78053427,5.99602604,0,0.0486165173,0.0050687124,0.994315028,-0.0302767009,-0.0743031725,-0.0335423835,68.4250031,991.888916,0,0.0890000015,0.292073756,2.79918194,0.274164766,2.83177304,0.0179089904,-0.0325911045,0.996067524,0.986999929,-2.41000009,-2.5999999,-3,-0.200000003,0,0,3.0999999,3,2.5,0,0,0,-5.09116835e-05,1.697056e-05,0,0,0.30779016,-0.465418607,1.49586022,-2.21955037,1.49586022,0,-0,-2.2340095,0.0144590661,0,1515,1875,1510,1316,4.86000013,-4.80000019,21.6700001,0,0.0199999996,0.540000021,0,0,1,-0.000636396057,0.000212132014
2.519982,1783676945.047010,42,-3.01493216,-2.78690577,5.9953804,0,0.0481784306,0.00462847995,0.994807124,0.00866339728,-0.0174153559,-0.0243228432,68.4750061,991.888916,0,0.604000032,0.26657474,2.77263403,0.27442354,2.82548571,-0.00784879923,-0.0528516769,0.995984197,1.00800002,-2.41000009,-2.5999999,-3,-0.200000003,0,0,3.0999999,3,2.5,-0.000118446354,7.98929541e-05,-2.8266908e-05,1.68511651e-05,1.70510921e-05,0,0,0.30779016,-0.465418607,1.49586022,-2.21955037,1.49586022,0,-0,-2.2340095,0.0144590661,0,1515,1875,1510,1316,4.86000013,-4.80000019,21.6700001,0,0.0199999996,0.540000021,0,0,1,0.000212132014,0.000212132014
2.595829,1783676945.122856,43,-3.01402164,-2.78281546,5.99473095,0,0.0501360372,0.00547233224,0.994273961,-0.00515295845,-0.0259735771,0.00559497997,68.5250015,991.888916,0,0.160000011,0.315344036,2.88663816,0.275141269,2.8291328,0.0402027667,0.0575053692,0.995984197,1.00800002,-2.41000009,-2.5999999,-3,-0.200000003,0,0,3.0999999,3,2.5,-0.000209351783,7.83189389e-05,5.30433681e-05,-2.11026602e-07,7.89454901e-08,0,0,0.30779016,-0.465418607,1.49586022,-2.21955037,1.49586022,0,-0,-2.2340095,0.0144590661,0,1515,1875,1510,1316,4.86000013,-4.80000019,21.6700001,0,0.0199999996,0.540000021,0,0,1,-0,-0
2.626561,1783676945.153588,44,-3.01526308,-2.78640318,5.99391842,0,0.0487862602,0.00430780882,0.994358361,0.018933313,0.0706626475,0.00510210125,68.5750046,991.710449,0,0.749000013,0.248218089,2.80882764,0.274168223,2.8258462,-0.0259501338,-0.0170185566,0.995877028,1.03499997,-2.41000009,-2.5999999,-3,-0.200000003,0,0,3.0999999,3,2.5,-6.8317655e-05,0.000124461207,0.000163707737,-1.70412695e-05,5.10405007e-05,0,0,0.30779016,-0.465418607,1.49586022,-2.21955037,1.49586022,0,-0,-2.2340095,0.0144590661,0,1515,1875,1510,1316,4.86000013,-4.80000019,21.6700001,0,0.0199999996,0.540000021,0,0,1,-0.000212132014,0.000636396057
2.689061,1783676945.216089,45,-3.01459932,-2.78107357,5.99343204,0,0.0495753027,0.00523281842,0.993614912,-0.0131322294,-0.022058893,0.0150398705,68.625,991.710449,0,0.33100003,0.301742285,2.85630059,0.274615854,2.83100414,0.0271264315,0.0252964497,0.995980263,1.00899994,-2.41000009,-2.5999999,-3,-0.200000003,0,0,3.0999999,3,2.5,-4.62341341e-05,5.25686155e-05,-8.29696655e-05,-4.66502428e-08,-3.38880782e-05,0,0,0.30779016,-0.465418607,1.49586022,-2.21955037,1.49586022,0,-0,-2.2340095,0.0144590661,0,1515,1875,1510,1316,4.86000013,-4.80000019,21.6700001,0,0.0199999996,0.540000021,0,0,1,-0,-0.000424264028
2.752606,1783676945.279633,46,-3.01852322,-2.78116441,5.99244308,0,0.0488482527,0.00424039457,0.994198799,-0.020173585,-0.0483455881,-0.0474049523,68.6750031,991.710449,0,0.119000003,0.244372889,2.81284237,0.270905614,2.83108664,-0.0265327245,-0.0182442665,0.99606353,0.987999976,-2.41000009,-2.5999999,-3,-0.200000003,0,0,3.0999999,3,2.5,0,0,0,3.39411199e-05,0,0,0,0.30779016,-0.465418607,1.49586022,-2.21955037,1.49586022,0,-0,-2.2340095,0.0144590661,0,1515,1875,1510,1316,4.86000013,-4.80000019,21.6700001,0,0.0199999996,0.540000021,0,0,1,0.000424264028,-0
2.784607,1783676945.311634,47,-3.01647449,-2.78716135,5.99205971,0,0.048213616,0.00511897262,0.994075119,0.0229287092,0.0236983169,0.000696576433,68.7250061,991.710449,0,0.522000015,0.295041025,2.77668881,0.272760391,2.82521272,0.0222806334,-0.0485239029,0.995984197,1.00800002,-2.41000009,-2.5999999,-3,-0.200000003,0,0,3.0999999,3,2.5,-7.93522631e-05,-4.14074966e-05,2.34603885e-05,-7.99870818e-08,-4.17387547e-08,0,0,0.30779016,-0.465418607,1.49586022,-2.21955037,1.49586022,0,-0,-2.2340095,0.0144590661,0,1515,1875,1510,1316,4.86000013,-4.80000019,21.6700001,0,0.0199999996,0.540000021,0,0,1,-0,-0
2.847064,1783676945.374091,48,-3.0175786,-2.78985095,5.99158192,0,0.0495455563,0.00505525852,0.994517326,0.0294521973,-0.0142572261,0.00542833004,68.7750015,991.710449,0,0.110000007,0.291239262,2.8520062,0.271667123,2.8222084,0.0195721388,0.0297977924,0.995980263,1.00899994,-2.41000009,-2.5999999,-3,-0.200000003,0,0,3.0999999,3,2.5,-3.80069032e-05,-4.84145457e-05,1.64222729e-05,3.3902772e-05,3.38922691e-05,0,0,0.30779016,-0.465418607,1.49586022,-2.21955037,1.49586022,0,-0,-2.2340095,0.0144590661,0,1515,1875,1510,1316,4.86000013,-4.80000019,21.6700001,0,0.0199999996,0.540000021,0,0,1,0.000424264028,0.000424264028
2.908668,1783676945.435695,49,-3.0171535,-2.79093647,5.99065304,0,0.0481604747,0.00513688801,0.994252264,0.00272766408,-0.0138948616,-0.0421833582,68.8250046,991.730225,0,0.697000027,0.296020836,2.77313924,0.27207461,2.82143664,0.0239462256,-0.0482974052,0.99598819,1.00699997,-2.41000009,-2.5999999,-3,-0.200000003,0,0,3.0999999,3,2.5,-0.00017068685,-1.21651592e-05,-3.35311888e-05,-1.71881652e-07,-1.22503154e-08,0,0,0.30779016,-0.465418607,1.49586022,-2.21955037,1.49586022,0,-0,-2.2340095,0.0144590661,0,1515,1875,1510,1316,4.86000013,-4.80000019,21.6700001,0,0.0199999996,0.540000021,0,0,1,-0,-0
2.971017,1783676945.498045,50,-3.02086759,-2.78760767,5.98996925,0,0.0503324643,0.00441731466,0.994266391,-0.0171951912,-0.0669485554,-0.0271410067,68.875,991.730225,0,0.268000007,0.254551321,2.89796543,0.268512815,2.82427573,-0.013961494,0.0736896992,0.995984197,1.00800002,-2.41000009,-2.5999999,-3,-0.200000003,0,0,3.0999999,3,2.5,0.000279666798,4.28185631e-05,1.36756898e-05,2.81904136e-07,4.3161112e-08,0,0,0.30779016,-0.465418607,1.49586022,-2.21955037,1.49586022,0,-0,-2.2340095,0.0144590661,0,1515,1875,1510,1316,4.86000013,-4.80000019,21.6700001,0,0.0199999996,0.540000021,0,0,1,-0,-0
3.050435,1783676945.577462,51,-3.02042246,-2.79229569,5.98961258,0,0.0475200154,0.00515720714,0.994306028,-0.00453501754,-0.0473639034,-0.0249572191,68.9250031,991.730225,0,0.867000043,0.297175676,2.73616934,0.268787771,2.82022095,0.0283879042,-0.084051609,0.995984197,1.00800002,-2.41000009,-2.5999999,-3,-0.200000003,0,0,3.0999999,3,2.5,0,0,0,0,0,0,0,0.30779016,-0.465418607,1.49586022,-2.21955037,1.49586022,0,-0,-2.2340095,0.0144590661,0,1515,1875,1510,1316,4.86000013,-4.80000019,21.6700001,0,0.0199999996,0.540000021,0,0,1,-0,-0
3.096442,1783676945.623470,52,-3.0212419,-2.78943229,5.98881149,0,0.0505404249,0.00444833562,0.993900657,-0.0153447967,-0.0409641154,-0.0408168882,68.9750061,991.730225,0,0.441000015,0.256433249,2.91098714,0.268129319,2.82239127,-0.0116960704,0.0885958672,0.995984197,1.00800002,-2.41000009,-2.5999999,-3,-0.200000003,0,0,3.0999999,3,2.5,2.72601847e-05,5.87672002e-06,1.27029425e-05,2.74782668e-08,5.92373395e-09,0,0,0.30779016,-0.465418607,1.49586022,-2.21955037,1.49586022,0,-0,-2.2340095,0.0144590661,0,1515,1875,1510,1316,4.86000013,-4.80000019,21.6700001,0,0.0199999996,0.540000021,0,0,1,-0,-0
3.158056,1783676945.685083,53,-3.02028322,-2.78902602,5.98810673,0,0.0498557463,0.00466817711,0.994746745,0.00911751762,-0.0187921785,0.000896648504,69.0250015,991.730225,0,0.088000007,0.268877357,2.86917686,0.269041806,2.82297301,-0.000164449215,0.0462038517,0.996099234,0.979000032,-2.41000009,-2.5999999,-3,-0.200000003,0,0,3.0999999,3,2.5,1.78813941e-09,0,0,1.69705636e-05,1.697056e-05,0,0,0.30779016,-0.465418607,1.49586022,-2.21955037,1.49586022,0,-0,-2.2340095,0.0144590661,0,1515,1875,1510,1316,4.86000013,-4.80000019,21.6700001,0,0.0199999996,0.540000021,0,0,1,0.000212132014,0.000212132014
3.189104,1783676945.716131,54,-3.02082825,-2.78390503,5.9876442,0,0.0487357825,0.00415598601,0.994451463,0.00214092713,-0.0406465828,-0.0197663624,69.0750046,991.69458,0,0.631000042,0.239447683,2.80566525,0.26861316,2.82836556,-0.0291654766,-0.0227003098,0.995984197,1.00800002,-2.41000009,-2.5999999,-3,-0.200000003,0,0,3.0999999,3,2.5,-0.000194007764,-2.61417044e-05,-3.73077419e-05,-1.95559821e-07,-2.6350838e-08,0,0,0.30779016,-0.465418607,1.49586022,-2.21955037,1.49586022,0,-0,-2.2340095,0.0144590661,0,1515,1875,1510,1316,4.86000013,-4.80000019,21.6700001,0,0.0199999996,0.540000021,0,0,1,-0,-0
3.250656,1783676945.777683,55,-2.59537148,-2.87674546,5.94116211,0,0.325312972,0.149375275,0.92285192,6.37135315,-1.69635296,-3.73245049,69.125,991.69458,0,0.191000015,9.19430542,19.1868401,0.659679472,2.66910172,8.53462601,16.5177383,0.995984197,1.00800002,-2.41000009,-2.5999999,-3,-0.200000003,0,0,3.0999999,3,2.5,0.0265452154,0.0101329284,-0.0126400571,2.67575761e-05,1.0213992e-05,0,0,0.30779016,-0.465418607,1.49586022,-2.21955037,1.49586022,0,-0,-2.2340095,0.0144590661,0,1515,1875,1510,1316,4.86000013,-4.80000019,21.6700001,0,0.0199999996,0.540000021,0,0,1,-0,-0
3.328312,1783676945.855340,56,-2.69630766,-2.85606742,5.97007847,0,-0.0177517068,0.00496796845,1.0022701,4.58491802,1.67180836,2.17122674,69.1750031,991.69458,0,0.810000062,0.283996612,-1.01467574,0.59426254,2.77131581,-0.310265929,-3.78599167,0.995984197,1.00800002,-2.41000009,-2.5999999,-3,-0.200000003,0,0,3.0999999,3,2.5,-0.018220745,-0.00442278851,-0.00447990419,-0.000103219318,-0.000157193208,0,0,0.30779016,-0.465418607,1.49586022,-2.21955037,1.49586022,0,-0,-2.2340095,0.0144590661,0,1515,1875,1510,1316,4.86000013,-4.80000019,21.6700001,0,0.0199999996,0.540000021,0,0,1,-0.00106066011,-0.00190918811
3.359609,1783676945.886636,57,-3.21299458,-2.86823058,5.79085541,0,0.0124712512,-0.0338281021,1.01511836,4.03918552,2.61031699,-4.64862585,69.2250061,991.69458,0,0.36500001,-1.90863514,0.703482211,0.0843408704,2.75218391,-1.99297595,-2.04870176,0.995980263,1.00899994,-2.41000009,-2.5999999,-3,-0.200000003,0,0,3.0999999,3,2.5,0.00593856024,0.00323605305,-0.000906143221,-1.09785524e-05,2.02357369e-05,0,0,0.30779016,-0.465418607,1.49586022,-2.21955037,1.49586022,0,-0,-2.2340095,0.0144590661,0,1515,1875,1510,1316,4.86000013,-4.80000019,21.6700001,0,0.0199999996,0.540000021,0,0,1,-0.000212132014,0.000212132014
3.422174,1783676945.949201,58,-3.6542697,-2.65813422,5.74054623,0,0.0337046161,0.00480357697,0.993288755,-2.49043226,3.56750226,-1.57031,69.2750015,991.69458,0,0.120000005,0.277082115,1.94341195,-0.367500633,2.95806742,0.644582748,-1.01465547,0.996035755,0.995000005,-2.41000009,-2.5999999,-3,-0.200000003,0,0,3.0999999,3,2.5,0,0,0,6.78822398e-05,-6.78822398e-05,0,0,0.30779016,-0.465418607,1.49586022,-2.21955037,1.49586022,0,-0,-2.2340095,0.0144590661,0,1515,1875,1510,1316,4.86000013,-4.80000019,21.6700001,0,0.0199999996,0.540000021,0,0,1,0.000848528056,-0.000848528056
3.484563,1783676946.011590,59,-3.5273757,-2.44222617,5.73556423,0,0.0862541497,-0.01646295,1.00270462,-1.43644094,3.84834719,5.37358761,69.3250046,991.805603,0,0.57100004,-0.940628827,4.91590595,-0.235218525,3.16291356,-0.705410302,1.75299239,0.995984197,1.00800002,-2.41000009,-2.5999999,-3,-0.200000003,0,0,3.0999999,3,2.5,-0.00142071967,0.00130475173,-0.00114131928,8.3420724e-05,-1.56553779e-05,0,0,0.30779016,-0.465418607,1.49586022,-2.21955037,1.49586022,0,-0,-2.2340095,0.0144590661,0,1515,1875,1510,1316,4.86000013,-4.80000019,21.6700001,0,0.0199999996,0.540000021,0,0,1,0.00106066011,-0.000212132087
3.546757,1783676946.073784,60,-3.56210566,-3.21913815,6.12850857,0,-0.0436251312,-0.0334203877,1.07341707,-9.39494896,1.10426903,5.15127611,69.375,991.805603,0,0.149000004,-1.78330386,-2.32617188,-0.266697109,2.41205001,-1.51660681,-4.73822212,0.99598819,1.00699997,-2.41000009,-2.5999999,-3,-0.200000003,0,0,3.0999999,3,2.5,0.00405200804,0.00437286822,0.000294342055,0.000173785986,-6.34787648e-05,0,0,0.30779016,-0.465418607,1.49586022,-2.21955037,1.49586022,0,-0,-2.2340095,0.0144590661,0,1515,1875,1510,1316,4.86000013,-4.80000019,21.6700001,0,0.0199999996,0.540000021,0,0,1,0.00212132023,-0.000848527998
3.608556,1783676946.135584,61,-4.02840757,-3.82510328,6.18612957,0,-0.092151612,-0.208053067,1.14089692,-8.26815319,5.96912527,-1.75127101,69.4250031,991.805603,0,0.784000039,-10.3348503,-4.543221,-0.70039314,1.81259966,-9.63445759,-6.35582066,0.995984197,1.00800002,-2.41000009,-2.5999999,-3,-0.200000003,0,0,3.0999999,3,2.5,-0.00398423197,0.00436493428,-0.00151971821,1.29544542e-05,0.000394722796,0,0,0.30779016,-0.465418607,1.49586022,-2.21955037,1.49586022,0,-0,-2.2340095,0.0144590661,0,1515,1875,1510,1316,4.86000013,-4.80000019,21.6700001,0,0.0199999996,0.540000021,0,0,1,0.000212131999,0.00487903692
3.671047,1783676946.198074,62,-4.94527674,-3.93387866,6.17866325,0,0.102494121,-0.173056751,1.12655306,-6.99873018,10.9986477,9.36830425,69.4750061,991.805603,0,0.362000018,-8.73328876,5.13852787,-1.62744498,1.66436303,-7.10584354,3.47416496,0.99598819,1.00699997,-2.41000009,-2.5999999,-3,-0.200000003,0,0,3.0999999,3,2.5,-0.00081008795,0.00251069083,0.00190481194,-0.000357197569,1.94988261e-05,0,0,0.30779016,-0.465418607,1.49586022,-2.21955037,1.49586022,0,-0,-2.2340095,0.0144590661,0,1515,1875,1510,1316,4.86000013,-4.80000019,21.6700001,0,0.0199999996,0.540000021,0,0,1,-0.00445477292,0.000212131999
3.732888,1783676946.259916,63,-4.99495649,-3.13870382,6.79386044,0,0.0494123921,-0.0689376444,1.01911223,-13.5808573,6.29317284,17.8094769,69.5250015,991.805603,0,0.0870000049,-3.86986661,2.76953411,-1.69681954,2.47227001,-2.17304707,0.297264099,0.99594456,1.01800001,-2.41000009,-2.5999999,-3,-0.200000003,0,0,3.0999999,3,2.5,0,0,0,-6.78822398e-05,0.000203646734,0,0,0.30779016,-0.465418607,1.49586022,-2.21955037,1.49586022,0,-0,-2.2340095,0.0144590661,0,1515,1875,1510,1316,4.86000013,-4.80000019,21.6700001,0,0.0199999996,0.540000021,0,0,1,-0.000848528056,0.00254558423
3.779634,1783676946.306661,64,-4.62901497,-2.68616009,8.02426434,0,-0.0133400578,-0.0567801557,1.03705156,-22.5386219,1.73036695,29.3418388,69.5750046,992.016052,0,0.559000015,-3.13390231,-0.735878527,-1.33225572,2.94119406,-1.80164659,-3.67707253,0.995873153,1.03600001,-2.41000009,-2.5999999,-3,-0.200000003,0,0,3.0999999,3,2.5,-0.00334597193,0.000803818752,-0.00263780612,-0.0115943607,-0.00181501824,0,0,0.30779016,-0.465418607,1.49586022,-2.21955037,1.49586022,0,-0,-2.2340095,0.0144590661,0,1515,1875,1510,1316,4.86000013,-4.80000019,21.6700001,0,0.0199999996,0.540000021,0,0,1,-0.144886181,-0.0226981379
3.843445,1783676946.370472,65,-3.85713148,-2.93374538,9.20433998,0,0.0550279133,-0.0419342369,1.10596073,-24.3496113,0.18172811,14.9334803,69.625,992.016052,0,0.15200001,-2.17141938,2.8464036,-0.561341524,2.67775679,-1.61007786,0.168646812,0.995984197,1.00800002,-2.41000009,-2.5999999,-3,-0.200000003,0,0,3.0999999,3,2.5,0.000709966465,0.000992907328,-0.00072195055,-0.0103173861,0.00278417324,0,0,0.30779016,-0.465418607,1.49586022,-2.21955037,1.49586022,0,-0,-2.2340095,0.0144590661,0,1515,1875,1510,1316,4.86000013,-4.80000019,21.6700001,0,0.0199999996,0.540000021,0,0,1,-0.128976271,0.0347896554
3.883037,1783676946.410064,66,-3.05892158,-3.12728429,9.24029446,0,0.0230200682,-0.0248170141,1.05814362,-29.2405319,-1.59286547,-12.5119524,69.6750031,992.016052,0,0.816000044,-1.34353173,1.2459389,0.236736253,2.48988056,-1.58026803,-1.24394166,0.995992124,1.00599992,-2.41000009,-2.5999999,-3,-0.200000003,0,0,3.0999999,3,2.5,-0.00156178058,-0.000723262143,-0.000156555179,-0.0104045244,-0.000424991653,0,0,0.30779016,-0.465418607,1.49586022,-2.21955037,1.49586022,0,-0,-2.2340095,0.0144590661,0,1515,1875,1510,1316,4.86000013,-4.80000019,21.6700001,0,0.0199999996,0.540000021,0,0,1,-0.13003692,-0.00530330092
3.952451,1783676946.479479,67,5.2323184,0.933114529,-1.5282402,0,-0.0299954731,0.0719332397,0.933157921,-19.7051563,10.4181709,6.595716,70.5250015,991.769897,0,0.873000026,4.40797424,-1.83564222,8.53822899,6.57908535,-4.13025475,-8.41472721,0.995984197,1.00800002,-2.41000009,-2.5999999,-3,-0.200000003,0,0,3.0999999,3,2.5,0,0,0,-0.00312258396,-0.00376746501,0,0,0.30779016,-0.465418607,1.49586022,-2.21955037,1.49586022,0,-0,-2.2340095,0.0144590661,0,1515,1875,1510,1316,4.86000013,-4.80000019,21.6700001,0,0.0199999996,0.540000021,0,0,1,-0.0390322991,-0.0470933132
4.016104,1783676946.543131,68,4.53027534,0.905451775,-1.16637993,0,0.0695866495,0.0827248469,0.907990098,2.48480487,13.1671467,10.4103184,70.5750046,991.884949,0,0.432000011,5.20571232,4.3644681,7.83037949,6.52651072,-2.62466717,-2.16204262,0.995892882,1.03100002,-2.41000009,-2.5999999,-3,-0.200000003,0,0,3.0999999,3,2.5,-0.00389107363,-0.00384872686,0.00265073776,-0.00163318543,-0.00214225869,0,0,0.30779016,-0.465418607,1.49586022,-2.21955037,1.49586022,0,-0,-2.2340095,0.0144590661,0,1515,1875,1510,1316,4.86000013,-4.80000019,21.6700001,0,0.0199999996,0.540000021,0,0,1,-0.0203646719,-0.0267286338
4.078757,1783676946.605784,69,3.55532503,0.505623341,-0.388143539,0,0.0929908678,-0.0191863161,1.06539464,-0.313160986,-0.47067529,9.92416763,70.625,991.884949,0,0.124000005,-1.031708,4.98750257,6.87640667,6.12235975,-7.90811443,-1.13485718,0.995984197,1.00800002,-2.41000009,-2.5999999,-3,-0.200000003,0,0,3.0999999,3,2.5,0,0,0,-0.00358078862,-0.00622819643,0,0,0.30779016,-0.465418607,1.49586022,-2.21955037,1.49586022,0,-0,-2.2340095,0.0144590661,0,1515,1875,1510,1316,4.86000013,-4.80000019,21.6700001,0,0.0199999996,0.540000021,0,0,1,-0.0447598584,-0.0778524578
4.109941,1783676946.636968,70,3.33801985,0.289785862,-0.728410721,0,0.144690752,0.24416329,0.911462784,13.9042568,-14.8858433,-15.1230145,70.6750031,991.884949,0,0.660000026,14.9963398,8.71778297,6.59410191,5.89078093,8.40223789,2.82700205,0.996043682,0.992999971,-2.41000009,-2.5999999,-3,-0.200000003,0,0,3.0999999,3,2.5,-0.0237700306,-0.0191500299,0.0098446086,-0.00506386021,-0.00499139074,0,0,0.30779016,-0.465418607,1.49586022,-2.21955037,1.49586022,0,-0,-2.2340095,0.0144590661,0,1515,1875,1510,1316,4.86000013,-4.80000019,21.6700001,0,0.0199999996,0.540000021,0,0,1,-0.0630032122,-0.0621546805
4.172391,1783676946.699419,71,2.53470469,-0.654468536,-0.638364792,0,0.384509236,0.083005324,1.19313812,8.71273232,-27.6325016,-9.32952595,70.7250061,991.884949,0,0.217000008,3.97959352,17.8220863,5.83147287,4.90579081,-1.85187936,12.916296,0.995980263,1.00899994,-2.41000009,-2.5999999,-3,-0.200000003,0,0,3.0999999,3,2.5,0.0949385837,-0.0169510581,-0.0366544537,-0.00102426403,-0.00140868966,0,0,0.30779016,-0.465418607,1.49586022,-2.21955037,1.49586022,0,-0,-2.2340095,0.0144590661,0,1515,1875,1510,1316,4.86000013,-4.80000019,21.6700001,0,0.0199999996,0.540000021,0,0,1,-0.0140007138,-0.0173948258
4.234105,1783676946.761133,72,1.30932188,-1.64811897,-0.730464935,0,0.0492297672,-0.0198214669,0.982456505,-5.27268982,9.11711979,-13.2324495,70.7750015,991.884949,0,0.84800005,-1.15580928,2.86804366,4.62182474,3.9684751,-5.77763414,-1.10043144,0.99598819,1.00699997,-2.41000009,-2.5999999,-3,-0.200000003,0,0,3.0999999,3,2.5,0.0341464728,0.00689138519,-0.000112152105,-0.00118749496,-0.00260652672,0,0,0.30779016,-0.465418607,1.49586022,-2.21955037,1.49586022,0,-0,-2.2340095,0.0144590661,0,1515,1875,1510,1316,4.86000013,-4.80000019,21.6700001,0,0.0199999996,0.540000021,0,0,1,-0.0152735058,-0.0326683298
4.297791,1783676946.824819,73,0.676442146,-1.23936081,-0.785146713,0,0.177826688,-0.109475486,1.00104499,4.99109793,-7.09942484,-3.70409441,70.8250046,991.829407,0,0.406000018,-6.24113321,10.0145168,4.00692081,4.35007095,-10.2480545,5.66444588,0.995984197,1.00800002,-2.41000009,-2.5999999,-3,-0.200000003,0,0,3.0999999,3,2.5,0.00371614797,0.00635370985,0.000210689177,7.16280847e-05,-6.14777018e-05,0,0,0.30779016,-0.465418607,1.49586022,-2.21955037,1.49586022,0,-0,-2.2340095,0.0144590661,0,1515,1875,1510,1316,4.86000013,-4.80000019,21.6700001,0,0.0199999996,0.540000021,0,0,1,0.000848528056,-0.000848528056
4.360087,1783676946.887114,74,-0.277957439,-1.95288348,-0.685619354,0,0.0373244211,-0.0168164242,1.00070238,-4.37024975,0.649346471,3.80115557,70.875,991.829407,0,0.114000008,-0.962743223,2.13573933,3.02721572,3.66537189,-3.989959,-1.52963257,0.996027827,0.997000039,-2.41000009,-2.5999999,-3,-0.200000003,0,0,3.0999999,3,2.5,0,0,0,-0.000152735054,-1.69705727e-05,0,0,0.30779016,-0.465418607,1.49586022,-2.21955037,1.49586022,0,-0,-2.2340095,0.0144590661,0,1515,1875,1510,1316,4.86000013,-4.80000019,21.6700001,0,0.0199999996,0.540000021,0,0,1,-0.00190918823,-0.000212132174
4.422051,1783676946.949078,75,-0.571250439,-1.93468189,-0.748592377,0,0.125633225,-0.00438803434,0.991102517,4.07407713,10.224946,0.0806086063,70.9250031,991.829407,0,0.60800004,-0.253671259,7.22427511,2.73005605,3.6631968,-2.98372722,3.56107831,0.995984197,1.00800002,-2.41000009,-2.5999999,-3,-0.200000003,0,0,3.0999999,3,2.5,0.0021706582,0.00118671905,-0.00021520615,-0.000388134911,0.0001878724,0,0,0.30779016,-0.465418607,1.49586022,-2.21955037,1.49586022,0,-0,-2.2340095,0.0144590661,0,1515,1875,1510,1316,4.86000013,-4.80000019,21.6700001,0,0.0199999996,0.540000021,0,0,1,-0.00487903692,0.00233345246
4.483140,1783676947.010168,76,-1.25524354,-1.8839407,-0.704721451,0,0.0580606349,-0.00750895264,0.996142864,-3.33705211,-11.9316397,2.01552606,70.9750061,991.829407,0,0.160000011,-0.431888998,3.33564186,2.04430962,3.72986722,-2.47619867,-0.394225359,0.9958691,1.03699994,-2.41000009,-2.5999999,-3,-0.200000003,0,0,3.0999999,3,2.5,0.000200246577,0.000426719809,0.000343551656,0.000638623605,-0.000512782717,0,0,0.30779016,-0.465418607,1.49586022,-2.21955037,1.49586022,0,-0,-2.2340095,0.0144590661,0,1515,1875,1510,1316,4.86000013,-4.80000019,21.6700001,0,0.0199999996,0.540000021,0,0,1,0.000636396057,-0.000212132014
4.515261,1783676947.042288,77,-1.41217232,-2.54965806,-0.69562149,0,0.015010125,0.000586386537,0.99732852,3.22853613,10.7535267,-2.12899041,71.0250015,991.829407,0,0.793000042,0.0336874686,0.862255275,1.88458478,3.07139277,-1.85089731,-2.20913744,0.995984197,1.00800002,-2.41000009,-2.5999999,-3,-0.200000003,0,0,3.0999999,3,2.5,0.005349454,0.00121056323,-0.000176181798,-0.000300077838,0.000306690315,0,0,0.30779016,-0.465418607,1.49586022,-2.21955037,1.49586022,0,-0,-2.2340095,0.0144590661,0,1515,1875,1510,1316,4.86000013,-4.80000019,21.6700001,0,0.0199999996,0.540000021,0,0,1,-0.00381837622,0.00381837622
4.578584,1783676947.105611,78,-1.91957116,-2.01548672,-0.742927551,0,0.0911549255,0.000766836107,0.991740406,-3.13678551,-5.76287079,0.136571318,71.0750046,991.857178,0,0.376000017,0.0443023816,5.25153303,1.375108,3.59000707,-1.33080566,1.66152596,0.995976269,1.00999999,-2.41000009,-2.5999999,-3,-0.200000003,0,0,3.0999999,3,2.5,0.0013180197,-0.00213757972,0.000327243819,8.6184009e-05,-5.30706384e-05,0,0,0.30779016,-0.465418607,1.49586022,-2.21955037,1.49586022,0,-0,-2.2340095,0.0144590661,0,1515,1875,1510,1316,4.86000013,-4.80000019,21.6700001,0,0.0199999996,0.540000021,0,0,1,0.00106066011,-0.000636396057
4.648314,1783676947.175342,79,-1.98420763,-2.5839777,-0.686962128,0,-0.018124938,0.0110457418,0.99660784,3.23725629,-1.3702755,-0.584903538,71.125,991.857178,0,0.0870000049,0.635002553,-1.04183829,1.30777037,3.04431891,-0.672767818,-4.08615732,0.996055603,0.98999995,-2.41000009,-2.5999999,-3,-0.200000003,0,0,3.0999999,3,2.5,0,0,0,-6.78822544e-05,0.000135764494,0,0,0.30779016,-0.465418607,1.49586022,-2.21955037,1.49586022,0,-0,-2.2340095,0.0144590661,0,1515,1875,1510,1316,4.86000013,-4.80000019,21.6700001,0,0.0199999996,0.540000021,0,0,1,-0.000848528231,0.00169705623
4.688052,1783676947.215080,80,-2.36643171,-2.46368408,-0.744026184,0,0.0759304315,-0.00657269452,0.992334902,-3.07496524,6.78719759,-1.03110027,71.1750031,991.857178,0,0.592000008,-0.379491001,4.37547588,0.928143859,3.14354801,-1.30763483,1.23192787,0.995984197,1.00800002,-2.41000009,-2.5999999,-3,-0.200000003,0,0,3.0999999,3,2.5,0.00244140765,-0.00126193871,0.000135211943,-0.000184215256,0.000219345267,0,0,0.30779016,-0.465418607,1.49586022,-2.21955037,1.49586022,0,-0,-2.2340095,0.0144590661,0,1515,1875,1510,1316,4.86000013,-4.80000019,21.6700001,0,0.0199999996,0.540000021,0,0,1,-0.00233345246,0.00275771646
4.749229,1783676947.276256,81,-2.35664725,-2.35580492,-0.719501495,0,0.0459693149,0.02466291,0.991985083,2.92310047,-10.0068417,1.144521,71.2250061,991.857178,0,0.155000001,1.42420447,2.6524117,0.930693328,3.25881195,0.49351114,-0.606400251,0.995980263,1.00899994,-2.41000009,-2.5999999,-3,-0.200000003,0,0,3.0999999,3,2.5,0.00107732893,0.000407988147,-0.000168571481,-3.28540955e-05,3.4352779e-05,0,0,0.30779016,-0.465418607,1.49586022,-2.21955037,1.49586022,0,-0,-2.2340095,0.0144590661,0,1515,1875,1510,1316,4.86000013,-4.80000019,21.6700001,0,0.0199999996,0.540000021,0,0,1,-0.000424264028,0.000424264028
4.811016,1783676947.338043,82,-2.663131,-2.80047297,-0.70349884,0,0.0152260559,-0.0136617105,0.997697115,-2.01879859,7.89507818,-0.514286101,71.2750015,991.857178,0,0.782000065,-0.784516096,0.874252617,0.631881177,2.81951833,-1.41639733,-1.94526577,0.995984197,1.00800002,-2.41000009,-2.5999999,-3,-0.200000003,0,0,3.0999999,3,2.5,0.00441048201,0.000177037422,1.93405158e-05,-0.000148289269,0.00015291349,0,0,0.30779016,-0.465418607,1.49586022,-2.21955037,1.49586022,0,-0,-2.2340095,0.0144590661,0,1515,1875,1510,1316,4.86000013,-4.80000019,21.6700001,0,0.0199999996,0.540000021,0,0,1,-0.00190918811,0.00190918811
4.873305,1783676947.400332,83,-2.63930273,-2.35958171,-0.736261368,0,0.0621225424,0.0157949701,0.988727629,1.38993466,-4.50546169,0.0454468578,71.3250046,991.877014,0,0.339000016,0.915224969,3.59475541,0.648953199,3.25121927,0.26627177,0.343536139,0.99598819,1.00699997,-2.41000009,-2.5999999,-3,-0.200000003,0,0,3.0999999,3,2.5,-0.000130645043,0.00116749317,-0.000165195466,-8.49843709e-05,8.60284781e-05,0,0,0.30779016,-0.465418607,1.49586022,-2.21955037,1.49586022,0,-0,-2.2340095,0.0144590661,0,1515,1875,1510,1316,4.86000013,-4.80000019,21.6700001,0,0.0199999996,0.540000021,0,0,1,-0.00106066023,0.00106066023
4.919044,1783676947.446071,84,-2.85030198,-2.76503515,-0.702529907,0,-0.00311928196,-0.00746255554,0.998358548,-0.727245212,-1.51734948,-0.821169972,71.375,991.877014,0,0.0930000022,-0.428267956,-0.179009944,0.442443013,2.85907936,-0.870710969,-3.03808928,0.996071458,0.985999942,-2.41000009,-2.5999999,-3,-0.200000003,0,0,3.0999999,3,2.5,0,0,0,-1.697056e-05,1.697056e-05,0,0,0.30779016,-0.465418607,1.49586022,-2.21955037,1.49586022,0,-0,-2.2340095,0.0144590661,0,1515,1875,1510,1316,4.86000013,-4.80000019,21.6700001,0,0.0199999996,0.540000021,0,0,1,-0.000212132014,0.000212132014
4.995679,1783676947.522706,85,-2.83149219,-2.65059543,-0.7388134,0,0.0613732934,0.0122082504,0.990139902,0.278107077,4.88597918,-1.56601465,71.4250031,991.877014,0,0.558000028,0.706411064,3.54664183,0.456829786,2.95922494,0.249581277,0.587416887,0.995984197,1.00800002,-2.41000009,-2.5999999,-3,-0.200000003,0,0,3.0999999,3,2.5,0.00230197562,0.000701319019,-0.000162334443,-6.55618496e-05,6.85891719e-05,0,0,0.30779016,-0.465418607,1.49586022,-2.21955037,1.49586022,0,-0,-2.2340095,0.0144590661,0,1515,1875,1510,1316,4.86000013,-4.80000019,21.6700001,0,0.0199999996,0.540000021,0,0,1,-0.000848528056,0.000848528056
5.057959,1783676947.584986,86,-2.95666933,-2.52318478,-0.725509644,0,0.0371864997,-0.0147883948,0.996392429,0.00259381533,-7.1780014,1.52964425,71.4750061,991.877014,0,0.141000003,-0.850318015,2.13711667,0.337429255,3.09283614,-1.18774724,-0.955719471,0.995980263,1.00899994,-2.41000009,-2.5999999,-3,-0.200000003,0,0,3.0999999,3,2.5,-0.00282743643,0.000211946375,6.29425074e-07,6.50878792e-05,-7.44000772e-06,0,0,0.30779016,-0.465418607,1.49586022,-2.21955037,1.49586022,0,-0,-2.2340095,0.0144590661,0,1515,1875,1510,1316,4.86000013,-4.80000019,21.6700001,0,0.0199999996,0.540000021,0,0,1,0.000636396115,-0.000636396115
5.089964,1783676947.616992,87,-2.96978498,-2.83380842,-0.710426331,0,0.023666868,0.0038370348,0.994601309,-0.0716732219,6.85449171,-0.32193017,71.5250015,991.877014,0,0.752000034,0.221038133,1.3631047,0.319936424,2.78407741,-0.0988982916,-1.4209727,0.995984197,1.00800002,-2.41000009,-2.5999999,-3,-0.200000003,0,0,3.0999999,3,2.5,-0.000925237895,4.58492359e-05,0.000129089356,-5.18443267e-05,5.0957904e-05,0,0,0.30779016,-0.465418607,1.49586022,-2.21955037,1.49586022,0,-0,-2.2340095,0.0144590661,0,1515,1875,1510,1316,4.86000013,-4.80000019,21.6700001,0,0.0199999996,0.540000021,0,0,1,-0.000636396115,0.000636396115
5.152384,1783676947.679412,88,-3.04490924,-2.49192691,-0.742326736,0,0.0776350945,-0.0102838855,0.993273854,-0.0457114242,-3.82190275,0.418179333,71.5750046,991.924622,0,0.276000023,-0.593192101,4.46896029,0.24798663,3.11450171,-0.841178715,1.35445857,0.995754123,1.06599998,-2.41000009,-2.5999999,-3,-0.200000003,0,0,3.0999999,3,2.5,-0.000345715292,-0.000380178564,7.09533706e-05,-5.53236605e-05,5.46117662e-05,0,0,0.30779016,-0.465418607,1.49586022,-2.21955037,1.49586022,0,-0,-2.2340095,0.0144590661,0,1515,1875,1510,1316,4.86000013,-4.80000019,21.6700001,0,0.0199999996,0.540000021,0,0,1,0.000424264028,-0.000424264028
5.244033,1783676947.771060,89,-3.05668998,-2.8179462,-0.708703995,0,0.0149368653,0.00977340806,0.99582392,0.11190965,-0.148495197,-0.306887746,71.625,991.924622,0,0.114000008,0.562305331,0.859302402,0.231330141,2.80188751,0.330975175,-1.94258511,0.996059656,0.988999963,-2.41000009,-2.5999999,-3,-0.200000003,0,0,3.0999999,3,2.5,0,0,0,1.697056e-05,-1.697056e-05,0,0,0.30779016,-0.465418607,1.49586022,-2.21955037,1.49586022,0,-0,-2.2340095,0.0144590661,0,1515,1875,1510,1316,4.86000013,-4.80000019,21.6700001,0,0.0199999996,0.540000021,0,0,1,0.000212132014,-0.000212132014
5.275068,1783676947.802096,90,-3.09857345,-2.69811893,-0.743297577,0,0.0704058185,-0.00293723447,0.993648946,-0.22065787,3.86144733,-0.915290356,71.6750031,991.924622,0,0.548000038,-0.169366315,4.05294895,0.192202851,2.90946841,-0.361569166,1.14348054,0.995984197,1.00800002,-2.41000009,-2.5999999,-3,-0.200000003,0,0,3.0999999,3,2.5,0.000568685529,1.26810373e-05,-2.67791766e-05,-1.63973255e-05,5.09244674e-05,0,0,0.30779016,-0.465418607,1.49586022,-2.21955037,1.49586022,0,-0,-2.2340095,0.0144590661,0,1515,1875,1510,1316,4.86000013,-4.80000019,21.6700001,0,0.0199999996,0.540000021,0,0,1,-0.000212132014,0.000636396057
5.321003,1783676947.848031,91,-3.10047793,-2.63377619,-0.725599289,0,0.0422215909,0.0104003875,0.994176447,0.324941874,-5.79176044,1.15255749,71.7250061,991.924622,0,0.123000003,0.599366963,2.43169498,0.187191024,2.98060751,0.412175953,-0.548912525,0.995984197,1.00800002,-2.41000009,-2.5999999,-3,-0.200000003,0,0,3.0999999,3,2.5,-0.00111850444,0.000165076563,-1.21879584e-05,4.97842302e-05,-1.68041624e-05,0,0,0.30779016,-0.465418607,1.49586022,-2.21955037,1.49586022,0,-0,-2.2340095,0.0144590661,0,1515,1875,1510,1316,4.86000013,-4.80000019,21.6700001,0,0.0199999996,0.540000021,0,0,1,0.000636396057,-0.000212132014
5.383936,1783676947.910964,92,-3.14375949,-2.86374354,-0.720371246,0,0.0351170413,-0.00602371106,0.996055245,-0.20902589,5.78127337,-0.491821468,71.7750015,991.924622,0,0.745000064,-0.346495867,2.01915359,0.147546738,2.75137329,-0.494042605,-0.732219696,0.99598819,1.00699997,-2.41000009,-2.5999999,-3,-0.200000003,0,0,3.0999999,3,2.5,0.000707679428,0.000238402572,6.5059663e-05,7.12633152e-07,3.41811901e-05,0,0,0.30779016,-0.465418607,1.49586022,-2.21955037,1.49586022,0,-0,-2.2340095,0.0144590661,0,1515,1875,1510,1316,4.86000013,-4.80000019,21.6700001,0,0.0199999996,0.540000021,0,0,1,-0,0.000424264028
5.445686,1783676947.972713,93,-3.13604307,-2.56810212,-0.741989136,0,0.0715473518,0.00807015784,0.991572022,0.0673155189,-3.67134213,0.210167229,71.8250046,991.91272,0,0.309000015,0.466305763,4.12691545,0.152020261,3.03971553,0.314285517,1.08719993,0.99598819,1.00699997,-2.41000009,-2.5999999,-3,-0.200000003,0,0,3.0999999,3,2.5,-0.000219404712,-8.0540929e-05,0.000164165496,1.674962e-05,-1.70516651e-05,0,0,0.30779016,-0.465418607,1.49586022,-2.21955037,1.49586022,0,-0,-2.2340095,0.0144590661,0,1515,1875,1510,1316,4.86000013,-4.80000019,21.6700001,0,0.0199999996,0.540000021,0,0,1,0.000212132014,-0.000212132014
5.520405,1783676948.047432,94,-3.17084765,-2.83288121,-0.719638824,0,0.0219686516,-0.00505333813,0.997751474,0.0953571051,0.72014451,-0.216722235,71.875,991.91272,0,0.0950000063,-0.290184975,1.26132762,0.120135821,2.78546119,-0.410320789,-1.52413356,0.995956361,1.0150001,-2.41000009,-2.5999999,-3,-0.200000003,0,0,3.0999999,3,2.5,0,0,0,3.39411199e-05,0,0,0,0.30779016,-0.465418607,1.49586022,-2.21955037,1.49586022,0,-0,-2.2340095,0.0144590661,0,1515,1875,1510,1316,4.86000013,-4.80000019,21.6700001,0,0.0199999996,0.540000021,0,0,1,0.000424264028,-0
5.551708,1783676948.078735,95,-3.16157198,-2.69143558,-0.742294312,0,0.0698272958,0.0072795446,0.99214983,-0.441514641,2.46220875,-0.572860897,71.9250031,991.91272,0,0.511000037,0.420379728,4.02571869,0.126572549,2.91628861,0.293807179,1.10943007,0.995984197,1.00800002,-2.41000009,-2.5999999,-3,-0.200000003,0,0,3.0999999,3,2.5,0.000751211657,-0.00016651288,-7.11822504e-05,1.77277816e-05,-1.71384054e-05,0,0,0.30779016,-0.465418607,1.49586022,-2.21955037,1.49586022,0,-0,-2.2340095,0.0144590661,0,1515,1875,1510,1316,4.86000013,-4.80000019,21.6700001,0,0.0199999996,0.540000021,0,0,1,0.000212132014,-0.000212132014
5.614928,1783676948.141955,96,-3.18168259,-2.66861033,-0.729906082,0,0.0411284044,-0.00455917558,0.995564878,0.523146749,-4.48561716,0.741442323,71.9750061,991.91272,0,0.112000003,-0.262383401,2.36561203,0.109134994,2.94590163,-0.371518403,-0.580289602,0.995980263,1.00899994,-2.41000009,-2.5999999,-3,-0.200000003,0,0,3.0999999,3,2.5,-0.000648289919,4.88794612e-05,-4.48608407e-05,9.71486443e-05,-8.7522727e-05,0,0,0.30779016,-0.465418607,1.49586022,-2.21955037,1.49586022,0,-0,-2.2340095,0.0144590661,0,1515,1875,1510,1316,4.86000013,-4.80000019,21.6700001,0,0.0199999996,0.540000021,0,0,1,0.000636396057,0.000212132014
5.676505,1783676948.203532,97,-3.19084859,-2.83164024,-0.726594925,0,0.0413390435,0.00644643838,0.994462252,-0.629562497,4.88382244,-0.409903854,72.0250015,991.91272,0,0.702000022,0.371405274,2.38032174,0.0973762944,2.78215122,0.274028987,-0.401829481,0.99598819,1.00699997,-2.41000009,-2.5999999,-3,-0.200000003,0,0,3.0999999,3,2.5,0.000643311767,-0.000178637812,0.000116844181,1.76183748e-05,1.6790671e-05,0,0,0.30779016,-0.465418607,1.49586022,-2.21955037,1.49586022,0,-0,-2.2340095,0.0144590661,0,1515,1875,1510,1316,4.86000013,-4.80000019,21.6700001,0,0.0199999996,0.540000021,0,0,1,0.000212132014,0.000212132014
5.739784,1783676948.266811,98,-3.18228579,-2.59606004,-0.744338989,0,0.0676293522,-0.00280529493,0.993815601,0.605312765,-3.59162498,0.354962766,72.0750046,991.892883,0,0.285000026,-0.161731347,3.89297223,0.108123258,3.01258016,-0.269854605,0.880392075,0.995980263,1.00899994,-2.41000009,-2.5999999,-3,-0.200000003,0,0,3.0999999,3,2.5,-0.000452874927,9.42400875e-05,-0.00010013581,4.67077416e-06,-5.00368742e-06,0,0,0.30779016,-0.465418607,1.49586022,-2.21955037,1.49586022,0,-0,-2.2340095,0.0144590661,0,1515,1875,1510,1316,4.86000013,-4.80000019,21.6700001,0,0.0199999996,0.540000021,0,0,1,0.000424264028,-0.000424264028
5.802437,1783676948.329464,99,-3.20545006,-2.82404733,-0.723461151,0,0.026415566,0.00494417176,0.995463133,-0.463899165,0.982396305,-0.144331992,72.125,991.892883,0,0.895000041,0.284568906,1.52002287,0.0830923766,2.79307246,0.201476529,-1.27304959,0.996119142,0.974000037,-2.41000009,-2.5999999,-3,-0.200000003,0,0,3.0999999,3,2.5,0,0,0,1.697056e-05,-1.697056e-05,0,0,0.30779016,-0.465418607,1.49586022,-2.21955037,1.49586022,0,-0,-2.2340095,0.0144590661,0,1515,1875,1510,1316,4.86000013,-4.80000019,21.6700001,0,0.0199999996,0.540000021,0,0,1,0.000212132014,-0.000212132014
5.863790,1783676948.390817,100,-3.18918228,-2.68619466,-0.746170044,0,0.0708460137,-0.00111475086,0.992956102,0.322365046,1.35240269,-0.49594748,72.1750031,991.892883,0,0.444000036,-0.0643235818,4.08105469,0.100824207,2.92119336,-0.165147781,1.15986133,0.9958691,1.03699994,-2.41000009,-2.5999999,-3,-0.200000003,0,0,3.0999999,3,2.5,0.000454216031,0.000227331839,-1.25885015e-06,4.33340261e-07,2.16883663e-07,0,0,0.30779016,-0.465418607,1.49586022,-2.21955037,1.49586022,0,-0,-2.2340095,0.0144590661,0,1515,1875,1510,1316,4.86000013,-4.80000019,21.6700001,0,0.0199999996,0.540000021,0,0,1,-0,-0
5.895249,1783676948.422276,101,-3.21264625,-2.69997716,-0.730255127,0,0.0394923873,0.00401110249,0.993869185,-0.230067626,-3.37837267,0.669783771,72.2250061,991.892883,0,0.117000006,0.231235653,2.27548957,0.0760548264,2.91476941,0.155180827,-0.639279842,0.995984197,1.00800002,-2.41000009,-2.5999999,-3,-0.200000003,0,0,3.0999999,3,2.5,-0.000680950296,-0.000190499879,1.06430061e-05,3.32547206e-05,-0.000102015394,0,0,0.30779016,-0.465418607,1.49586022,-2.21955037,1.49586022,0,-0,-2.2340095,0.0144590661,0,1515,1875,1510,1316,4.86000013,-4.80000019,21.6700001,0,0.0199999996,0.540000021,0,0,1,0.000424264028,-0.00127279211
5.957905,1783676948.484932,102,-3.2013166,-2.79518843,-0.733240128,0,0.0456027612,-0.00187392451,0.994705141,0.183264703,4.08588648,-0.437757879,72.2750015,991.892883,0,0.690000057,-0.107939363,2.62491155,0.0887985677,2.81776619,-0.19673793,-0.192854643,0.995980263,1.00899994,-2.41000009,-2.5999999,-3,-0.200000003,0,0,3.0999999,3,2.5,0.000630939612,0.000278024439,-0.000196552282,-3.33045027e-05,-3.36605917e-05,0,0,0.30779016,-0.465418607,1.49586022,-2.21955037,1.49586022,0,-0,-2.2340095,0.0144590661,0,1515,1875,1510,1316,4.86000013,-4.80000019,21.6700001,0,0.0199999996,0.540000021,0,0,1,-0.000424264028,-0.000424264028
6.020053,1783676948.547080,103,-3.2171917,-2.62383461,-0.741729736,0,0.0607259087,0.00294516515,0.993259251,-0.275941074,-3.33084011,0.326640099,72.3250046,991.936523,0,0.270000011,0.169890225,3.49858093,0.0717395544,2.98629355,0.0981506705,0.512287378,0.995996118,1.005,-2.41000009,-2.5999999,-3,-0.200000003,0,0,3.0999999,3,2.5,-0.000474740285,-0.000173576031,6.68334978e-05,8.43756934e-05,-5.10861282e-05,0,0,0.30779016,-0.465418607,1.49586022,-2.21955037,1.49586022,0,-0,-2.2340095,0.0144590661,0,1515,1875,1510,1316,4.86000013,-4.80000019,21.6700001,0,0.0199999996,0.540000021,0,0,1,0.00106066011,-0.000636396057
6.082452,1783676948.609479,104,-3.20769525,-2.821872,-0.730073929,0,0.0326529294,-0.000820539775,0.996110976,0.349668235,1.53254557,-0.234753326,72.375,991.936523,0,0.889000058,-0.0471970066,1.87750638,0.0821480379,2.79398417,-0.129345044,-0.916477799,0.99598819,1.00699997,-2.41000009,-2.5999999,-3,-0.200000003,0,0,3.0999999,3,2.5,0,0,0,3.39411199e-05,0,0,0,0.30779016,-0.465418607,1.49586022,-2.21955037,1.49586022,0,-0,-2.2340095,0.0144590661,0,1515,1875,1510,1316,4.86000013,-4.80000019,21.6700001,0,0.0199999996,0.540000021,0,0,1,0.000424264028,-0
6.146392,1783676948.673419,105,-3.21875358,-2.66729665,-0.74546814,0,0.0687768236,0.00335744419,0.991947651,-0.495396554,0.345087767,-0.149942636,72.4250031,991.936523,0,0.444000036,0.193928212,3.96624041,0.0700734034,2.94076467,0.123854809,1.02547574,0.995984197,1.00800002,-2.41000009,-2.5999999,-3,-0.200000003,0,0,3.0999999,3,2.5,0.000167759659,-0.000115047551,0.000164909376,1.71396623e-05,-1.70865278e-05,0,0,0.30779016,-0.465418607,1.49586022,-2.21955037,1.49586022,0,-0,-2.2340095,0.0144590661,0,1515,1875,1510,1316,4.86000013,-4.80000019,21.6700001,0,0.0199999996,0.540000021,0,0,1,0.000212132014,-0.000212132014
6.209916,1783676948.736943,106,-3.20639253,-2.72643352,-0.733598709,0,0.0384757146,-0.000954688294,0.995568156,0.563399196,-2.1497407,0.303682804,72.4750061,991.936523,0,0.138000011,-0.0549430922,2.21320724,0.0834882483,2.88845992,-0.13843134,-0.675252676,0.995980263,1.00899994,-2.41000009,-2.5999999,-3,-0.200000003,0,0,3.0999999,3,2.5,0,0,0,6.78822398e-05,0,0,0,0.30779016,-0.465418607,1.49586022,-2.21955037,1.49586022,0,-0,-2.2340095,0.0144590661,0,1515,1875,1510,1316,4.86000013,-4.80000019,21.6700001,0,0.0199999996,0.540000021,0,0,1,0.000848528056,-0
6.286361,1783676948.813388,107,-3.22750568,-2.76972938,-0.737873077,0,0.0511681177,0.00232097739,0.99485445,-0.636758983,3.14405537,-0.336601108,72.5250015,991.936523,0,0.659000039,0.133669779,2.94427824,0.0615292415,2.84203959,0.0721405372,0.102238655,0.99598819,1.00699997,-2.41000009,-2.5999999,-3,-0.200000003,0,0,3.0999999,3,2.5,0.000470010651,-0.000134628906,8.01086458e-07,4.7330073e-07,-1.35571312e-07,0,0,0.30779016,-0.465418607,1.49586022,-2.21955037,1.49586022,0,-0,-2.2340095,0.0144590661,0,1515,1875,1510,1316,4.86000013,-4.80000019,21.6700001,0,0.0199999996,0.540000021,0,0,1,-0,-0
6.316501,1783676948.843528,108,-3.19861984,-2.64618659,-0.742553711,0,0.056388896,0.000744448276,0.993795812,0.612010121,-3.08142853,0.214637175,72.5750046,991.821472,0,0.214000016,0.0429200232,3.24753261,0.0909023434,2.96482706,-0.0479823202,0.282705545,0.995877028,1.03499997,-2.41000009,-2.5999999,-3,-0.200000003,0,0,3.0999999,3,2.5,-0.000339986087,0.000190073188,-5.92231772e-05,9.7426695e-05,2.76732935e-05,0,0,0.30779016,-0.465418607,1.49586022,-2.21955037,1.49586022,0,-0,-2.2340095,0.0144590661,0,1515,1875,1510,1316,4.86000013,-4.80000019,21.6700001,0,0.0199999996,0.540000021,0,0,1,0.000636396057,-0.000212132014
6.378561,1783676948.905589,109,-3.22778869,-2.80016065,-0.733657837,0,0.03783096,0.00112071133,0.995052397,-0.590930641,1.87777126,-0.0982934758,72.625,991.821472,0,0.857000053,0.0645312816,2.17728186,0.0615234859,2.81457782,0.00300779566,-0.637295961,0.995984197,1.00800002,-2.41000009,-2.5999999,-3,-0.200000003,0,0,3.0999999,3,2.5,0.000241291535,-0.000132265704,-7.06100473e-05,3.41843406e-05,3.38077953e-05,0,0,0.30779016,-0.465418607,1.49586022,-2.21955037,1.49586022,0,-0,-2.2340095,0.0144590661,0,1515,1875,1510,1316,4.86000013,-4.80000019,21.6700001,0,0.0199999996,0.540000021,0,0,1,0.000424264028,0.000424264028
6.441287,1783676948.968315,110,-3.1980741,-2.6551156,-0.746685028,0,0.0650522411,0.000775452529,0.993433237,0.495167732,-0.401849627,-0.0741128623,72.6750031,991.821472,0,0.433000028,0.0447238386,3.74650645,0.0914379209,2.95387745,-0.0467140824,0.792629004,0.995980263,1.00899994,-2.41000009,-2.5999999,-3,-0.200000003,0,0,3.0999999,3,2.5,-4.90522398e-05,0.000179653813,0.000264072441,6.51214214e-05,6.53337192e-05,0,0,0.30779016,-0.465418607,1.49586022,-2.21955037,1.49586022,0,-0,-2.2340095,0.0144590661,0,1515,1875,1510,1316,4.86000013,-4.80000019,21.6700001,0,0.0199999996,0.540000021,0,0,1,0.000424264028,0.000424264028
6.504029,1783676949.031056,111,-3.23463583,-2.72792912,-0.73487854,0,0.0397220999,0.000397021475,0.994694829,-0.378531635,-1.24340558,0.254812092,72.7250061,991.821472,0,0.126000002,0.0228689779,2.28683186,0.0548167378,2.88665891,-0.0319477618,-0.599827051,0.995984197,1.00800002,-2.41000009,-2.5999999,-3,-0.200000003,0,0,3.0999999,3,2.5,0,0,0,3.39411199e-05,-3.39411199e-05,0,0,0.30779016,-0.465418607,1.49586022,-2.21955037,1.49586022,0,-0,-2.2340095,0.0144590661,0,1515,1875,1510,1316,4.86000013,-4.80000019,21.6700001,0,0.0199999996,0.540000021,0,0,1,0.000424264028,-0.000424264028
6.565879,1783676949.092906,112,-3.20820904,-2.72419953,-0.741960526,0,0.0554814413,0.00214888155,0.994126022,0.308344364,2.4041276,-0.333498091,72.7750015,991.821472,0,0.66200006,0.123849139,3.194314,0.0809426606,2.88674331,0.042906478,0.307570696,0.995980263,1.00899994,-2.41000009,-2.5999999,-3,-0.200000003,0,0,3.0999999,3,2.5,0.000570273434,0.00023729571,-5.95665006e-05,5.6205422e-06,5.31144542e-06,0,0,0.30779016,-0.465418607,1.49586022,-2.21955037,1.49586022,0,-0,-2.2340095,0.0144590661,0,1515,1875,1510,1316,4.86000013,-4.80000019,21.6700001,0,0.0199999996,0.540000021,0,0,1,0.000424264028,0.000424264028
6.596525,1783676949.123552,113,-3.22984219,-2.64498782,-0.743125916,0,0.0533192344,0.00067443744,0.994327843,-0.257408947,-2.71823359,0.228424817,72.8250046,992.083252,0,0.236000016,0.0388628505,3.06945372,0.0595653243,2.96677923,-0.0207024738,0.102674484,0.995984197,1.00800002,-2.41000009,-2.5999999,-3,-0.200000003,0,0,3.0999999,3,2.5,-0.000263746973,-6.43285966e-06,6.22558582e-05,6.76163909e-05,-3.39476101e-05,0,0,0.30779016,-0.465418607,1.49586022,-2.21955037,1.49586022,0,-0,-2.2340095,0.0144590661,0,1515,1875,1510,1316,4.86000013,-4.80000019,21.6700001,0,0.0199999996,0.540000021,0,0,1,0.000848528114,-0.000424264115
6.657776,1783676949.184804,114,-3.20952058,-2.76470208,-0.739517212,0,0.0422981791,0.00137777126,0.994818509,0.279585391,2.20204782,-0.175144225,72.875,992.083252,0,0.865000069,0.0793515816,2.43466139,0.0798055455,2.84913516,-0.000453963876,-0.414473772,0.996000051,1.00399995,-2.41000009,-2.5999999,-3,-0.200000003,0,0,3.0999999,3,2.5,0,0,0,0,0,0,0,0.30779016,-0.465418607,1.49586022,-2.21955037,1.49586022,0,-0,-2.2340095,0.0144590661,0,1515,1875,1510,1316,4.86000013,-4.80000019,21.6700001,0,0.0199999996,0.540000021,0,0,1,-0,-0
6.719854,1783676949.246882,115,-3.22831368,-2.63627434,-0.748584747,0,0.0610897616,0.000599318068,0.993448794,-0.348876417,-1.12412655,0.125705048,72.9250031,992.083252,0,0.423000008,0.0345648341,3.51883554,0.0611171462,2.97371793,-0.0265523121,0.545117617,0.99598819,1.00699997,-2.41000009,-2.5999999,-3,-0.200000003,0,0,3.0999999,3,2.5,-0.00020500661,-8.20935675e-05,5.78498875e-05,1.67641192e-05,-1.70532276e-05,0,0,0.30779016,-0.465418607,1.49586022,-2.21955037,1.49586022,0,-0,-2.2340095,0.0144590661,0,1515,1875,1510,1316,4.86000013,-4.80000019,21.6700001,0,0.0199999996,0.540000021,0,0,1,0.000212132014,-0.000212132014
6.782127,1783676949.309154,116,-3.21162915,-2.7346797,-0.740196228,0,0.0382042378,0.0011160071,0.995741725,0.401911974,-0.295362175,0.0355305485,72.9750061,992.083252,0,0.0940000042,0.0642159209,2.19722366,0.0777518004,2.88036489,-0.0135358796,-0.683141232,0.995805621,1.05299997,-2.41000009,-2.5999999,-3,-0.200000003,0,0,3.0999999,3,2.5,0,0,0,3.39411199e-05,3.39411199e-05,0,0,0.30779016,-0.465418607,1.49586022,-2.21955037,1.49586022,0,-0,-2.2340095,0.0144590661,0,1515,1875,1510,1316,4.86000013,-4.80000019,21.6700001,0,0.0199999996,0.540000021,0,0,1,0.000424264028,0.000424264028
6.844889,1783676949.371916,117,-3.22959185,-2.70129418,-0.747739792,0,0.0574690849,0.000300280924,0.99366945,-0.511356115,1.50220895,-0.223342031,73.0250015,992.083252,0,0.641000032,0.0173144396,3.31002617,0.0599034242,2.90927577,-0.0425889865,0.400750399,0.995984197,1.00800002,-2.41000009,-2.5999999,-3,-0.200000003,0,0,3.0999999,3,2.5,0.000332021737,1.96365363e-05,9.12666364e-05,3.34677907e-07,1.97936281e-08,0,0,0.30779016,-0.465418607,1.49586022,-2.21955037,1.49586022,0,-0,-2.2340095,0.0144590661,0,1515,1875,1510,1316,4.86000013,-4.80000019,21.6700001,0,0.0199999996,0.540000021,0,0,1,-0,-0
6.876095,1783676949.403122,118,-3.20987678,-2.66961646,-0.745555878,0,0.0484706871,0.00228643138,0.994358599,0.470023364,-2.11347818,0.198187038,73.0750046,991.992065,0,0.245000005,0.131745875,2.79070568,0.0792368948,2.94317436,0.05250898,-0.152468681,0.99598819,1.00699997,-2.41000009,-2.5999999,-3,-0.200000003,0,0,3.0999999,3,2.5,-0.000318616047,0.000185459008,-0.000149402622,4.79598975e-06,1.71816637e-07,0,0,0.30779016,-0.465418607,1.49586022,-2.21955037,1.49586022,0,-0,-2.2340095,0.0144590661,0,1515,1875,1510,1316,4.86000013,-4.80000019,21.6700001,0,0.0199999996,0.540000021,0,0,1,0.000424264028,-0
6.937807,1783676949.464834,119,-3.23800325,-2.74898839,-0.744853973,0,0.0468548238,0.000216370798,0.994459748,-0.446263075,2.14678478,-0.125438929,73.125,991.992065,0,0.889000058,0.0124661997,2.69754481,0.0514734127,2.86384106,-0.039007213,-0.166296244,0.996091306,0.981000006,-2.41000009,-2.5999999,-3,-0.200000003,0,0,3.0999999,3,2.5,0,0,0,0,0,0,0,0.30779016,-0.465418607,1.49586022,-2.21955037,1.49586022,0,-0,-2.2340095,0.0144590661,0,1515,1875,1510,1316,4.86000013,-4.80000019,21.6700001,0,0.0199999996,0.540000021,0,0,1,-0,-0
6.998501,1783676949.525528,120,-3.20992947,-2.64001369,-0.750131607,0,0.0586565882,0.00273365807,0.993451476,0.403369546,-1.42263305,0.0781750754,73.1750031,991.992065,0,0.442000031,0.157659113,3.37899256,0.0790790617,2.9705236,0.0785800517,0.408468962,0.995980263,1.00899994,-2.41000009,-2.5999999,-3,-0.200000003,0,0,3.0999999,3,2.5,-0.000283659698,0.000126978572,-0.000113468173,2.28226872e-06,2.66345592e-06,0,0,0.30779016,-0.465418607,1.49586022,-2.21955037,1.49586022,0,-0,-2.2340095,0.0144590661,0,1515,1875,1510,1316,4.86000013,-4.80000019,21.6700001,0,0.0199999996,0.540000021,0,0,1,0.000212132014,0.000212132014
7.060833,1783676949.587860,121,-3.23701954,-2.7391212,-0.743652344,0,0.0417355224,-0.000352096016,0.994572818,-0.362810254,0.305077374,0.00317106675,73.2250061,991.992065,0,0.155000001,-0.0202836972,2.40290785,0.0525971577,2.87495184,-0.0728808567,-0.472043991,0.99598819,1.00699997,-2.41000009,-2.5999999,-3,-0.200000003,0,0,3.0999999,3,2.5,0,0,0,0,-3.39411199e-05,0,0,0.30779016,-0.465418607,1.49586022,-2.21955037,1.49586022,0,-0,-2.2340095,0.0144590661,0,1515,1875,1510,1316,4.86000013,-4.80000019,21.6700001,0,0.0199999996,0.540000021,0,0,1,-0,-0.000424264028
7.122889,1783676949.649916,122,-3.2149477,-2.65834451,-0.751636505,0,0.0804886669,-0.00186112069,0.992342353,1.27886164,0.647541344,2.96675348,73.2750015,991.992065,0,0.671000004,-0.107457109,4.63708878,0.0751105025,2.94704127,-0.182567611,1.6900475,0.995980263,1.00899994,-2.41000009,-2.5999999,-3,-0.200000003,0,0,3.0999999,3,2.5,-0.000920223014,-0.000110505229,0.000379371661,4.23694382e-06,-1.0257979e-07,0,0,0.30779016,-0.465418607,1.49586022,-2.21955037,1.49586022,0,-0,-2.2340095,0.0144590661,0,1515,1875,1510,1316,4.86000013,-4.80000019,21.6700001,0,0.0199999996,0.540000021,0,0,1,0.000424264028,-0
7.185340,1783676949.712367,123,-3.28367949,-2.67591882,-0.756896973,0,0.0789502189,0.017022606,0.979751766,1.11388516,1.19526196,2.79269028,73.3250046,991.996033,0,0.232000008,0.995380104,4.60635328,0.00165409013,2.92952657,0.993726015,1.67682672,0.995984197,1.00800002,-2.41000009,-2.5999999,-3,-0.200000003,0,0,3.0999999,3,2.5,0.00526141794,-0.00133937993,-0.000532150269,3.92446309e-05,-3.52912139e-05,0,0,0.30779016,-0.465418607,1.49586022,-2.21955037,1.49586022,0,-0,-2.2340095,0.0144590661,0,1515,1875,1510,1316,4.86000013,-4.80000019,21.6700001,0,0.0199999996,0.540000021,0,0,1,0.000424264028,-0.000424264028
7.248340,1783676949.775367,124,-3.31178379,-2.62516189,-0.706756592,0,0.0189253036,-0.00881254859,0.964906454,0.140749335,-2.3796258,-4.43021679,73.375,991.996033,0,0.241000012,-0.523271263,1.12358642,-0.0198633578,2.9966774,-0.503407896,-1.87309098,0.994842708,1.296,-2.41000009,-2.5999999,-3,-0.200000003,0,0,3.0999999,3,2.5,0.0142412148,0.0318635032,0.00270172302,0.00182460726,-7.98556284e-05,0,0,-0.00184860069,6.34934804e-06,-0.00898419973,3.04652676e-05,-0.00898419973,0,-0,3.0476871e-05,-1.16038672e-08,-0,1471,1874,1440,1415,4.86000013,-4.80000019,21.6700001,0,0.0199999996,0.540000021,0,0,1,0.00169705611,-0.00212132023
7.279720,1783676949.806747,125,-3.38452053,-2.66470075,-0.694602966,0,0.0542255864,-0.0143067073,1.00138879,-0.605003357,-0.609117746,1.2643863,73.4250031,991.996033,0,0.422000021,-0.81852138,3.09924579,-0.0922855511,2.94686794,-0.726235807,0.152377844,0.995992124,1.00599992,-2.41000009,-2.5999999,-3,-0.200000003,0,0,3.0999999,3,2.5,0.172884822,0.165923595,-0.173594713,0.00760879973,0.00422544312,0,0,-0.00760879973,-0.00422544312,-0.0369787663,-0.0202807225,-0.0369787663,0,-0,-0.020282127,1.40474958e-06,-0,1448,1884,1435,1420,4.86000013,-4.80000019,21.6700001,0,0.0199999996,0.540000021,0,0,1,0.000636396057,-0.00233345223
7.342152,1783676949.869180,126,-3.39600062,-2.66447067,-0.685956955,0,0.0469454974,0.000187759171,1.00331092,2.69601893,4.73449612,-0.581178606,73.4750061,991.996033,0,0.0830000043,0.0107223075,2.67894888,-0.107325427,2.94919419,0.118047737,-0.270245314,0.994502425,1.38200009,-2.41000009,-2.5999999,-3,-0.200000003,0,0,3.0999999,3,2.5,0.0913199335,0.0397047512,-0.0748681799,0.00969788805,0.0038334392,0,0,-0.0103561515,-0.00426915195,-0.0503308959,-0.0204854459,-0.0503308959,0,-0,-0.0204919297,6.48364085e-06,-0,1369,1838,1437,1419,4.86000013,-4.80000019,21.6700001,0,0.0199999996,0.540000021,0,0,1,-0,-0.00212132046
7.403238,1783676949.930265,127,-3.45790315,-2.52325273,-0.709861755,0,-0.024000695,0.00447070971,1.00454485,-0.120548576,1.24782741,2.53934264,73.5250015,991.996033,0,0.761000037,0.254992217,-1.36864316,-0.170168012,3.10565138,0.425160229,-4.47429466,0.996262014,0.937999964,-2.41000009,-2.5999999,-3,-0.200000003,0,0,3.0999999,3,2.5,0.15396826,-0.00959531777,-0.0918988138,0.0131543716,0.00652640872,0,0,-0.0131543716,-0.00652640872,-0.0639302507,-0.0313152224,-0.0639302507,0,-0,-0.0313267633,1.15393104e-05,0,1420,1877,1434,1421,4.86000013,-4.80000019,21.6700001,0,0.0199999996,0.540000021,0,0,1,0.00106066011,-0.000636396057
7.465958,1783676949.992985,128,-3.4539001,-2.70111871,-0.732011795,0,-0.0819405317,-0.0683055222,0.989228487,0.334638238,-11.0981274,-5.66235924,73.5750046,991.825439,0,0.447000027,-3.94996285,-4.72396088,-0.148904219,2.94266987,-3.80105853,-7.66663074,0.995877028,1.03499997,-2.41000009,-2.5999999,-3,-0.200000003,0,0,3.0999999,3,2.5,-0.246420592,0.0406454168,-0.0674091205,0.0159662254,0.00663280953,0,0,-0.0159662254,-0.00663280953,-0.0775958598,-0.0318187661,-0.0775958598,0,0,-0.0318374857,1.87211754e-05,0,1515,1871,1441,1414,4.86000013,-4.80000019,21.6700001,0,0.0199999996,0.540000021,0,0,1,0.00127279211,-0.000424264028
7.526098,1783676950.053125,129,-3.41448569,-2.58401871,-0.753608704,0,0.12406376,0.0279331245,1.02336502,-0.140975371,0.362996101,1.65566778,73.625,991.825439,0,0.366000026,1.56352115,6.90975571,-0.132058024,3.01230812,1.69557917,3.89744759,0.995932639,1.02100003,-2.41000009,-2.5999999,-3,-0.200000003,0,0,3.0999999,3,2.5,0.164570928,-0.13150689,-0.0974961072,0.0185251143,0.00649722712,0,0,-0.0183570869,-0.00663149543,-0.0892154425,-0.0318053253,-0.0892154425,0,-0,-0.0318311788,2.58530454e-05,0,1454,1877,1435,1420,4.86000013,-4.80000019,21.6700001,0,0.0199999996,0.540000021,0,0,1,0.00148492423,0.000636396231
7.589138,1783676950.116165,130,-3.36463833,-2.73211288,-0.764217377,0,0.0783988982,0.0781460181,0.971601427,-0.333719611,-2.62027574,-0.417297632,73.6750031,991.825439,0,0.783000052,4.59840775,4.59843874,-0.0941585079,2.87313795,4.69256639,1.72530079,0.995984197,1.00800002,-2.41000009,-2.5999999,-3,-0.200000003,0,0,3.0999999,3,2.5,-0.0242132135,-0.0775490105,-0.170361727,0.0161694828,0.00292197079,0,0,-0.0161694828,-0.00292197079,-0.0785836875,-0.0139951147,-0.0785836875,0,0,-0.01402546,3.03453708e-05,0,1475,1881,1437,1418,4.86000013,-4.80000019,21.6700001,0,0.0199999996,0.540000021,0,0,1,0.00275771599,0.00403050845
7.651518,1783676950.178546,131,-3.21969795,-2.70539117,-0.781442642,0,-0.0456383452,-0.0471105166,0.999187469,0.460919857,-5.10147285,-4.54453754,73.7250061,991.825439,0,0.0940000042,-2.69942975,-2.61229563,0.0827738196,2.9329927,-2.78220367,-5.54528809,0.995274425,1.18699992,-2.41000009,-2.5999999,-3,-0.200000003,0,0,3.0999999,3,2.5,-0.0407375991,-0.0221026391,-0.225474119,0.0169039518,-0.00163090951,0,0,-0.0169523079,0.00160467369,-0.0823882222,0.00773329753,-0.0823882222,0,-0,0.00770243397,3.08634299e-05,0,1446,1870,1438,1418,4.86000013,-4.80000019,21.6700001,0,0.0199999996,0.540000021,0,0,1,0.0125157908,0.0129400548
7.683037,1783676950.210064,132,-3.33614182,-2.70876265,-0.795013428,0,0.0524802022,0.054265637,0.931912303,-1.45184803,-6.56161737,-3.41883755,73.7750015,991.825439,0,0.398000032,3.33259368,3.21774125,-0.0608491451,2.90211153,3.39344287,0.315629721,0.995865107,1.03799999,-2.41000009,-2.5999999,-3,-0.200000003,0,0,3.0999999,3,2.5,-0.103478476,0.157661557,0.0513627864,0.0148704723,0.00396092143,0,0,-0.0149778826,-0.00379726896,-0.0727925152,-0.0181962047,-0.0727925152,0,0,-0.0182268918,3.06871661e-05,-0,1499,1879,1441,1415,4.86000013,-4.80000019,21.6700001,0,0.0199999996,0.540000021,0,0,1,0.0180312227,0.0235466566
7.772473,1783676950.299500,133,-3.6304307,-2.65865207,-0.8195858,0,0.0499061681,-0.053202074,0.990772724,1.70478797,2.52121735,0.917102695,73.826004,991.896851,0,0.15200001,-3.07369137,2.87946486,-0.330088586,2.95382595,-2.74360275,-0.0743610859,0.995984197,1.00800002,-2.41000009,-2.5999999,-3,-0.200000003,0,0,3.0999999,3,2.5,-0.0112809343,0.270017236,0.0745844468,0.0131468792,0.0156554393,0,0,-0.0131582506,-0.0153832622,-0.0639491007,-0.0737992898,-0.0639491007,0,0,-0.0738396645,4.03711056e-05,-0,1403,1857,1438,1417,4.86000013,-4.80000019,21.6700001,0,0.0199999996,0.540000021,0,0,1,0.0165462978,0.0156977698
7.806477,1783676950.333505,134,-3.6313777,-2.68170166,-0.821012497,0,0.0291303303,0.00622397661,1.0033251,-1.86378407,0.455385745,0.843312025,73.8760071,991.896851,0,0.534000039,0.355421185,1.66301453,-0.345460027,2.93666792,0.700881243,-1.27365339,0.995139718,1.22099996,-2.41000009,-2.5999999,-3,-0.200000003,0,0,3.0999999,3,2.5,0.0269843265,-0.0384286977,-0.0390740372,0.0121844355,0.0191464722,0,0,-0.0121514881,-0.0191933941,-0.0590562336,-0.0920693576,-0.0590562336,0,0,-0.0921282917,5.89311931e-05,0,1435,1895,1437,1418,4.86000013,-4.80000019,21.6700001,0,0.0199999996,0.540000021,0,0,1,0.00212132023,-0.000424264173
7.867734,1783676950.394761,135,-3.56040359,-2.67513371,-0.814746857,0,0.0585557222,0.0503858775,0.966775894,-1.15498829,-1.14642072,-0.475123644,73.9260025,991.896851,0,0.660000026,2.98340988,3.46137285,-0.284201413,2.93493152,3.26761127,0.526441336,0.995984197,1.00800002,-2.41000009,-2.5999999,-3,-0.200000003,0,0,3.0999999,3,2.5,-0.01071091,-0.0384847894,-0.0715876892,0.0128528858,0.0156215066,0,0,-0.0128636826,-0.015660299,-0.0625175014,-0.0750928819,-0.0625175014,0,0,-0.0751694366,7.65562654e-05,0,1460,1880,1438,1418,4.86000013,-4.80000019,21.6700001,0,0.0199999996,0.540000021,0,0,1,0.00190918823,0.000212132174
7.928387,1783676950.455415,136,-3.55304623,-2.64660096,-0.848068237,0,0.0753236711,-0.0220508128,0.991905987,-0.581517637,-0.807623208,-0.461345166,73.9760056,991.896851,0,0.0850000009,-1.2735182,4.34154177,-0.261173189,2.96210527,-1.01234508,1.37943649,0.997482359,0.630999982,-2.41000009,-2.5999999,-3,-0.200000003,0,0,3.0999999,3,2.5,0.0307090841,0.0784187093,-0.0996608958,0.0112082306,0.0136717819,0,0,-0.0115363784,-0.0142056067,-0.0560667999,-0.0680958852,-0.0560667999,0,0,-0.0681869164,9.10285235e-05,-0,1429,1876,1439,1416,4.86000013,-4.80000019,21.6700001,0,0.0199999996,0.540000021,0,0,1,0.00890954491,0.00848528091
7.990657,1783676950.517685,137,-3.57116556,-2.69969177,-0.869497299,0,0.0342527628,-0.0375981927,1.03528082,-1.34407043,0.905530453,-0.45300734,74.026001,991.896851,0,0.511000037,-2.07989097,1.89371967,-0.274598897,2.91659117,-1.80529213,-1.02287149,0.99598819,1.00699997,-2.41000009,-2.5999999,-3,-0.200000003,0,0,3.0999999,3,2.5,-0.028639175,0.0694696456,-0.0628481582,0.00889968313,0.0157670937,0,0,-0.00892852247,-0.0156971384,-0.043392621,-0.075240694,-0.043392621,0,0,-0.0753462687,0.000105576459,-0,1399,1902,1439,1417,4.86000013,-4.80000019,21.6700001,0,0.0199999996,0.540000021,0,0,1,0.00466690492,0.00466690492
8.053457,1783676950.580484,138,-3.53316808,-2.66850305,-0.896080017,0,0.0340410359,-0.00520918705,0.98885107,-2.94785285,4.79006767,0.0335325003,74.076004,991.896851,0,0.65200001,-0.301826715,1.97159171,-0.243609816,2.94759965,-0.0582168996,-0.976007938,0.995980263,1.00899994,-2.41000009,-2.5999999,-3,-0.200000003,0,0,3.0999999,3,2.5,0.0516066998,0.00493027456,-0.0194470752,0.00745984539,0.0151042156,0,0,-0.00740777422,-0.0150992414,-0.0360017829,-0.0723551437,-0.0360017829,0,0,-0.0724763647,0.00012121936,0,1420,1914,1437,1418,4.86000013,-4.80000019,21.6700001,0,0.0199999996,0.540000021,0,0,1,-0.000848528114,0.000424264115
8.085052,1783676950.612080,139,-3.55764914,-2.56249166,-0.934520721,0,0.0998676568,-0.0060826689,0.93120271,-1.29352903,-1.46776462,0.489287853,74.1260071,991.896851,0,0.725000024,-0.374253958,6.12120962,-0.267898172,3.03731561,-0.106355786,3.08389401,0.99598819,1.00699997,-2.41000009,-2.5999999,-3,-0.200000003,0,0,3.0999999,3,2.5,0.152579427,0.0969262272,-0.0463173054,0.00879302993,0.0144382399,0,0,-0.0086393822,-0.0143406354,-0.0419873968,-0.068699345,-0.0419873968,0,-0,-0.0688350499,0.000135705966,-0,1504,1887,1441,1414,4.86000013,-4.80000019,21.6700001,0,0.0199999996,0.540000021,0,0,1,-0.00551543292,-0.00296984869
8.148916,1783676950.675943,140,-3.77539229,-2.5378325,-0.888393402,0,0.116898611,-0.00213901326,0.915386617,1.24111223,3.53387117,2.17852759,74.1760025,991.896851,0,0.323000014,-0.133884653,7.27749491,-0.48748529,3.05743313,0.353600621,4.22006178,0.995992124,1.00599992,-2.41000009,-2.5999999,-3,-0.200000003,0,0,3.0999999,3,2.5,0.116375685,0.113757476,0.199747235,0.00859922543,0.0161222536,0,0,-0.00848215166,-0.0160078127,-0.0412232578,-0.076686129,-0.0412232578,0,0,-0.0768375024,0.000151376415,0,1492,1854,1436,1419,4.86000013,-4.80000019,21.6700001,0,0.0199999996,0.540000021,0,0,1,-0.00975807384,-0.0106066018
8.211560,1783676950.738588,141,-3.77749872,-2.56499791,-0.799772263,0,0.0465059876,0.0482362732,0.990200877,0.128976792,3.38550305,3.16398883,74.2260056,991.896851,0,0.0790000036,2.78888035,2.68580985,-0.499028176,3.04837823,3.28790855,-0.362568378,0.996698916,0.828000009,-2.41000009,-2.5999999,-3,-0.200000003,0,0,3.0999999,3,2.5,0.0810606554,-0.2199931,-0.125371903,0.005812875,0.0128132449,0,0,-0.00563916564,-0.0132295564,-0.0274063461,-0.0633341745,-0.0274063461,0,-0,-0.0635018721,0.000167699502,0,1498,1863,1439,1416,4.86000013,-4.80000019,21.6700001,0,0.0199999996,0.540000021,0,0,1,-0.0152735058,-0.0241830517
8.272955,1783676950.799983,142,-3.35676479,-2.51017261,-0.772497177,0,0.0224473253,0.0393766537,0.985642612,-0.655031681,3.48556185,0.6771065,74.276001,991.896851,0,0.48300001,2.28776312,1.30360651,-0.0769555122,3.109272,2.36471868,-1.80566549,0.995976269,1.00999999,-2.41000009,-2.5999999,-3,-0.200000003,0,0,3.0999999,3,2.5,0.114514299,-0.317049026,-0.142717332,0.00410242006,-0.00767031917,0,0,-0.00398676051,0.00735009974,-0.0193756558,0.0354508497,-0.0193756558,0,0,0.035280481,0.00017036793,0,1434,1885,1435,1420,4.86000013,-4.80000019,21.6700001,0,0.0199999996,0.540000021,0,0,1,-0.0103944689,-0.0193040147
8.336998,1783676950.864025,143,-3.18392324,-2.51717377,-0.75062561,0,-0.0692609921,-0.00255420431,1.03585398,0.0805982649,5.83532763,-1.34998035,74.326004,991.849243,0,0.115000002,-0.141279414,-3.82529998,0.106396742,3.12293577,-0.247676164,-6.94823551,0.995980263,1.00899994,-2.41000009,-2.5999999,-3,-0.200000003,0,0,3.0999999,3,2.5,-0.125334382,-0.0790465623,-0.13617219,0.00366451731,-0.0170236155,0,0,-0.00379097974,0.0169438571,-0.0184241626,0.0814875141,-0.0184241626,0,0,0.0813305154,0.000157001559,0,1367,1885,1433,1423,4.86000013,-4.80000019,21.6700001,0,0.0199999996,0.540000021,0,0,1,-0.00169705611,-0.00509116845
8.399096,1783676950.926124,144,-3.26682568,-2.63670063,-0.71336174,0,0.102230586,-0.00376073737,1.06134677,2.94522548,0.225550294,2.56618667,74.3760071,991.849243,0,0.536000013,-0.203018919,5.50181198,0.0235494319,2.96370602,-0.226568356,2.53810596,0.995361626,1.16500008,-2.41000009,-2.5999999,-3,-0.200000003,0,0,3.0999999,3,2.5,-0.102550343,0.0162974354,-0.264663696,-0.00513468077,-0.0140251499,0,0,0.00501520978,0.0140441367,0.0243739206,0.067552954,0.0243739206,0,0,0.0674118623,0.000141094773,-0,1416,1845,1436,1419,4.86000013,-4.80000019,21.6700001,0,0.0199999996,0.540000021,0,0,1,0.000212132014,-0.000636396057
8.430149,1783676950.957176,145,-3.54241228,-2.64828348,-0.637397766,0,0.0341319218,0.0604875572,1.03965604,3.08402562,4.5622654,3.55331826,74.4260025,991.849243,0,0.262000024,3.32973528,1.87717378,-0.267562449,2.96828604,3.59729767,-1.09111226,0.995976269,1.00999999,-2.41000009,-2.5999999,-3,-0.200000003,0,0,3.0999999,3,2.5,0.0381848067,0.0862763077,-0.576547623,-0.0107584568,-0.00907582231,0,0,0.0107970238,0.00916296151,0.0524735376,0.0441113301,0.0524735376,0,-0,0.0439822152,0.000129115346,-0,1418,1829,1432,1424,4.86000013,-4.80000019,21.6700001,0,0.0199999996,0.540000021,0,0,1,0.000848527998,-0.0288499556
8.491529,1783676951.018556,146,-3.62200308,-2.64206028,-0.647516251,0,-0.0149652362,0.0405037478,1.05630159,7.41905975,0.332755089,-5.22127724,74.4760056,991.849243,0,0.520000041,2.19592357,-0.811092198,-0.346262544,2.99043179,2.54218602,-3.80152392,0.994656682,1.34299994,-2.41000009,-2.5999999,-3,-0.200000003,0,0,3.0999999,3,2.5,-0.126073077,-0.0809738338,-0.406675786,-0.00891290605,-0.0153284064,0,0,0.00862207077,0.0151725523,0.0419032648,0.0729460046,0.0419032648,0,-0,0.0728282556,0.000117747062,0,1367,1803,1436,1419,4.86000013,-4.80000019,21.6700001,0,0.0199999996,0.540000021,0,0,1,-0.0110308658,-0.0428506732
8.552545,1783676951.079572,147,-3.61233664,-2.47354674,-0.962316513,0,0.0481294394,0.104681551,1.0394659,5.38667774,10.4175949,-11.7588148,74.526001,991.849243,0,0.465000033,5.75070047,2.6376977,-0.347525507,3.14065409,6.09822607,-0.50295639,0.995980263,1.00899994,-2.41000009,-2.5999999,-3,-0.200000003,0,0,3.0999999,3,2.5,0.0798296407,-0.162775233,-0.323905617,-0.011476716,-0.023693338,0,0,0.0115572643,0.0235290974,0.0561683066,0.113038599,0.0561683066,0,-0,0.112939671,9.89302935e-05,0,1380,1803,1447,1408,4.86000013,-4.80000019,21.6700001,0,0.0199999996,0.540000021,0,0,1,0.00551543571,-0.050063163
8.614151,1783676951.141178,148,-3.36580753,-2.50250626,-1.68282509,0,0.206705332,0.0199117027,0.984087706,-0.174014747,-5.48526192,-19.8644905,74.576004,991.849243,0,0.432000011,1.15914559,11.8600359,-0.0794933736,3.08835673,1.238639,8.77167892,0.997569859,0.608999968,-2.41000009,-2.5999999,-3,-0.200000003,0,0,3.0999999,3,2.5,0.000265173614,-0.219280839,-0.437613189,-0.0100033293,-0.0337097868,0,0,0.0112609761,0.0330618173,0.0547283441,0.158767149,0.0547283441,0,0,0.158696726,7.04245467e-05,0,1433,1886,1459,1394,4.86000013,-4.80000019,21.6700001,0,0.0199999996,0.540000021,0,0,1,0.0184554867,-0.0460326485
8.674840,1783676951.201867,149,-2.8312254,-2.4180944,-2.43255424,0,-0.00373539329,0.052752234,1.02716112,-3.71905661,3.64758682,-9.84047604,74.6260071,991.849243,0,0.653000057,2.93997431,-0.208087727,0.448111862,3.20777535,2.49186254,-3.41586304,0.995992124,1.00599992,-2.41000009,-2.5999999,-3,-0.200000003,0,0,3.0999999,3,2.5,0.0318008624,-0.27916944,-0.196441978,-0.00343655748,-0.0452998169,0,0,0.00346854911,0.045018971,0.0168571491,0.21612218,0.0168571491,0,-0,0.216091067,3.11139738e-05,0,1420,1937,1464,1387,4.86000013,-4.80000019,21.6700001,0,0.0199999996,0.540000021,0,0,1,0.0180312227,-0.0142128458
8.739445,1783676951.266473,150,-2.89584494,-2.53021026,-2.87922096,0,0.13096945,0.0764019191,1.00696611,-3.69312286,-10.2813807,-14.118824,74.6760025,991.849243,0,0.243000016,4.33891106,7.38948202,0.377571374,3.06460118,3.96133971,4.3248806,0.995984197,1.00800002,-2.41000009,-2.5999999,-3,-0.200000003,0,0,3.0999999,3,2.5,0.0697034746,0.202203482,-0.352795273,-0.00229158392,-0.0335783027,0,0,0.00236184499,0.0337821245,0.0114785666,0.1621425,0.0114785666,0,-0,0.162154198,-1.16998908e-05,-0,1515,1936,1461,1391,4.86000013,-4.80000019,21.6700001,0,0.0199999996,0.540000021,0,0,1,-0.00381837692,0.0343653858
8.801113,1783676951.328140,151,-3.38174367,-2.52164268,-3.03692245,0,-0.0780855939,-0.0613577962,1.06368065,0.437455237,4.64857292,2.9630456,74.7260056,991.849243,0,0.74000001,-3.30141497,-4.19165182,-0.0781200379,3.12298608,-3.22329497,-7.31463814,0.995563745,1.11399996,-2.41000009,-2.5999999,-3,-0.200000003,0,0,3.0999999,3,2.5,-0.0494007319,0.609542668,-0.340060294,0.00131041207,-0.00408195704,0,0,-0.00136544451,0.00476098759,-0.00663606031,0.0228201803,-0.00663606031,0,-0,0.0228527412,-3.25607361e-05,-0,1470,1880,1456,1397,4.86000013,-4.80000019,21.6700001,0,0.0199999996,0.540000021,0,0,1,-0.0203646738,0.0530330092
8.832244,1783676951.359272,152,-4.25275087,-2.37147355,-2.97954369,0,0.188382745,-0.0818826407,0.992117405,6.86053419,-5.22271442,-2.30938601,74.776001,991.849243,0,0.430000007,-4.71811152,10.7157164,-0.948287606,3.21056652,-3.76982403,7.50514984,0.995984197,1.00800002,-2.41000009,-2.5999999,-3,-0.200000003,0,0,3.0999999,3,2.5,0.159325004,0.578932285,-0.0138048688,0.00248386175,0.0269251019,0,0,-0.00232326216,-0.0263415389,-0.0112910541,-0.126459703,-0.0112910541,0,0,-0.126439393,-2.03148575e-05,-0,1506,1803,1465,1386,4.86000013,-4.80000019,21.6700001,0,0.0199999996,0.540000021,0,0,1,-0.0354260504,0.0150613748
8.895025,1783676951.422052,153,-4.97449589,-2.25737858,-3.02302551,0,-0.0887008458,-0.0686551034,1.16430616,10.954978,3.28812122,3.90436792,74.826004,991.86908,0,0.0700000003,-3.37462592,-4.34904909,-1.6795764,3.38031602,-1.69504952,-7.72936535,0.996698916,0.828000009,-2.41000009,-2.5999999,-3,-0.200000003,0,0,3.0999999,3,2.5,-0.10684827,0.314722687,-0.166715652,0.00421247445,0.0427694023,0,0,-0.00431731017,-0.042139899,-0.0209821276,-0.20225428,-0.0209821276,0,-0,-0.202271521,1.72399195e-05,-0,1367,1803,1468,1382,4.86000013,-4.80000019,21.6700001,0,0.0199999996,0.540000021,0,0,1,-0.0243951827,-0.0159099028
8.956400,1783676951.483428,154,-5.1178236,-1.81561637,-3.21056557,0,0.199124843,0.0270919129,0.823481977,8.81737423,4.952981,0.936243534,74.8760071,991.86908,0,0.504000008,1.88430679,13.5865841,-1.84486532,3.75340867,3.72917223,9.83317566,0.99561137,1.102,-2.41000009,-2.5999999,-3,-0.200000003,0,0,3.0999999,3,2.5,0.184775829,-0.234193474,-0.0409314856,0.00256964937,0.0336872414,0,0,-0.0023660264,-0.033945322,-0.011498889,-0.162879273,-0.011498889,0,0,-0.162937552,5.82813518e-05,0,1515,1803,1463,1388,4.86000013,-4.80000019,21.6700001,0,0.0199999996,0.540000021,0,0,1,-0.00827315263,-0.0464569181
9.018512,1783676951.545539,155,-4.53497553,-1.73640299,-3.41066551,0,0.0284169149,0.0795638561,0.975118816,3.75984454,4.72481585,-4.87691879,74.9260025,991.86908,0,0.206000015,4.66465902,1.66371548,-1.26950514,3.88470411,5.93416405,-2.22098875,0.995980263,1.00899994,-2.41000009,-2.5999999,-3,-0.200000003,0,0,3.0999999,3,2.5,-0.0731981248,-0.636344314,-0.0849727914,-0.00236043474,0.00438102894,0,0,0.00228657783,-0.00502310041,0.0111127682,-0.0240318999,0.0111127682,0,0,-0.0241108835,7.89843252e-05,0,1384,1822,1468,1382,4.86000013,-4.80000019,21.6700001,0,0.0199999996,0.540000021,0,0,1,0.00296984985,-0.0309712775
9.079899,1783676951.606926,156,-3.70572352,-1.80076027,-3.55996895,0,0.188191012,0.0918005109,0.868477523,-2.40365839,0.867612362,-9.48271275,74.9760056,991.86908,0,0.54400003,6.03391838,12.1607246,-0.44924444,3.76890421,6.48316288,8.39182091,0.994933784,1.273,-2.41000009,-2.5999999,-3,-0.200000003,0,0,3.0999999,3,2.5,-0.018004775,-0.583346426,0.0612018704,-0.010083233,-0.0240456332,0,0,0.0100603132,0.0233030338,0.0488931239,0.111922644,0.0488931239,0,-0,0.111854568,6.80791418e-05,-0,1498,1905,1471,1378,4.86000013,-4.80000019,21.6700001,0,0.0199999996,0.540000021,0,0,1,0.00551543338,0.00890954584
9.143600,1783676951.670627,157,-3.05384874,-1.9819119,-3.57467651,0,0.0818481818,-0.0887538791,0.954174936,-4.45360804,-1.66209388,0.043302536,75.026001,991.86908,0,0.856000066,-5.31415367,4.88180304,0.257895976,3.62521124,-5.57204962,1.2565918,0.995976269,1.00999999,-2.41000009,-2.5999999,-3,-0.200000003,0,0,3.0999999,3,2.5,-0.205941275,-0.0569608845,0.167642102,-0.0211296454,-0.0376964845,0,0,0.0211296454,0.0376964845,0.102690078,0.180975661,0.102690078,0,0,0.180943131,3.25313413e-05,0,1466,1921,1464,1387,4.86000013,-4.80000019,21.6700001,0,0.0199999996,0.540000021,0,0,1,0.00360624492,0.0379716344
9.207184,1783676951.734212,158,-3.22560811,-2.0921526,-3.4335041,0,-0.114229739,-0.0084028244,0.960688293,-4.28338766,10.4040813,2.52297783,75.0770035,990.300659,0,0.0900000036,-0.501134574,-6.78060722,0.0664185211,3.56930494,-0.567553103,-10.3499126,0.995238781,1.19599998,-2.41000009,-2.5999999,-3,-0.200000003,0,0,3.0999999,3,2.5,-0.224698454,0.523455918,0.378112286,-0.0248912554,-0.0133689251,0,0,0.0246225167,0.0139949787,0.119665436,0.0671800002,0.119665436,0,0,0.0671759024,4.09739141e-06,-0,1397,1949,1456,1397,4.86000013,-4.80000019,21.6700001,0,0.0199999996,0.540000021,0,0,1,0.00148492306,0.0952472761
9.269545,1783676951.796572,159,-4.39258051,-2.14209008,-3.2061882,0,0.124643497,-0.0857079625,0.968308151,-0.87812674,-5.13851547,-7.38341236,75.1270065,990.300659,0,0.39200002,-5.05824518,7.30669165,-1.0865823,3.45391417,-3.971663,3.85277748,0.995801747,1.05400002,-2.41000009,-2.5999999,-3,-0.200000003,0,0,3.0999999,3,2.5,0.0350932404,1.04137659,0.24795498,-0.0263998061,0.036426574,0,0,0.0264367945,-0.0353289619,0.128482819,-0.169565842,0.128482819,0,0,-0.169579029,1.31871475e-05,-0,1512,1882,1459,1394,4.86000013,-4.80000019,21.6700001,0,0.0199999996,0.540000021,0,0,1,-0.0103944652,0.0795495063
9.301548,1783676951.828576,160,-5.7665925,-2.33756018,-3.02155685,0,-0.0614845976,-0.148038387,0.948280454,7.17193365,3.50818419,6.72911072,75.1780014,990.300659,0,0.167000011,-8.87296581,-3.66547704,-2.45145559,3.30262899,-6.42151022,-6.96810627,0.995980263,1.00899994,-2.41000009,-2.5999999,-3,-0.200000003,0,0,3.0999999,3,2.5,-0.0191935487,0.978368282,0.305738389,-0.0250176396,0.0827605575,0,0,0.0249982737,-0.0817733854,0.121491611,-0.392438173,0.121491611,0,-0,-0.392512262,7.40751493e-05,-0,1367,1803,1458,1394,4.86000013,-4.80000019,21.6700001,0,0.0199999996,0.540000021,0,0,1,-0.0286378227,0.0375473686
9.364686,1783676951.891714,161,-6.59848356,-2.31471682,-2.62879944,0,0.281617463,-0.0321559012,0.836003482,11.9304695,-7.09380341,14.2535744,75.2280045,990.300659,0,0.531000018,-2.2027297,18.6038857,-3.31465626,3.22141957,1.11192656,15.3824663,0.99505651,1.24199998,-2.41000009,-2.5999999,-3,-0.200000003,0,0,3.0999999,3,2.5,-0.0669875741,0.215888947,0.354875177,-0.0256224908,0.100625984,0,0,0.025539292,-0.100357853,0.124120966,-0.48154828,0.124120966,0,0,-0.481717706,0.000169433682,-0,1515,1803,1453,1400,4.86000013,-4.80000019,21.6700001,0,0.0199999996,0.540000021,0,0,1,-0.0311834086,0.00148492493
9.426921,1783676951.953948,162,-6.69767761,-2.37651324,-2.16302681,0,-0.0313875005,0.0811894238,1.06971157,10.6964016,0.878646374,-5.37085915,75.2779999,990.300659,0,0.676000059,4.34033823,-1.67587447,-3.43956494,3.25544977,7.77990341,-4.93132401,0.99598819,1.00699997,-2.41000009,-2.5999999,-3,-0.200000003,0,0,3.0999999,3,2.5,-0.394868731,-0.454366535,0.180717856,-0.0308068227,0.0780583099,0,0,0.0304091908,-0.0785158575,0.147788674,-0.37661463,0.147788674,0,0,-0.376876146,0.000261500827,0,1380,1803,1439,1416,4.86000013,-4.80000019,21.6700001,0,0.0199999996,0.540000021,0,0,1,-0.0403050855,-0.0169705637
9.489272,1783676952.016299,163,-5.82707977,-2.09265375,-1.71183395,0,-0.105464339,-0.0029297322,1.11893857,-0.477947891,12.7367048,13.075285,75.3280029,993.365601,0,0.0850000009,-0.150017977,-5.38442612,-2.54374385,3.54185724,2.39372587,-8.92628288,0.997498214,0.626999974,-2.41000009,-2.5999999,-3,-0.200000003,0,0,3.0999999,3,2.5,-0.0138083547,-0.817482829,0.292621017,-0.0370999575,0.0361757614,0,0,0.0372144356,-0.0378718562,0.180862159,-0.181464612,0.180862159,0,-0,-0.181784913,0.000320295076,0,1367,1847,1442,1413,4.86000013,-4.80000019,21.6700001,0,0.0199999996,0.540000021,0,0,1,-0.0369109735,-0.00806101505
9.553043,1783676952.080070,164,-4.39199305,-1.90409517,-1.5474205,0,0.152637109,0.121317968,0.766880631,-7.07965565,6.55648613,0.0318136215,75.378006,993.365601,0,0.520000041,8.98950481,11.1220322,-1.14340031,3.67816186,10.132905,7.44387054,0.995980263,1.00899994,-2.41000009,-2.5999999,-3,-0.200000003,0,0,3.0999999,3,2.5,-0.058030583,-0.91626364,0.332162499,-0.0408735275,-0.00591046968,0,0,0.0408149734,0.00498595973,0.198360771,0.0242676083,0.198360771,0,0,0.0239326078,0.000335000717,0,1442,1951,1447,1408,4.86000013,-4.80000019,21.6700001,0,0.0199999996,0.540000021,0,0,1,-0.0229102597,0.0424264073
9.583739,1783676952.110767,165,-3.81088829,-2.0332098,-1.53351402,0,0.0871164873,-0.147151172,0.936491013,-1.88605762,-3.08724046,9.33531189,75.4280014,993.365601,0,0.451000035,-8.92989159,5.25055313,-0.48762843,3.57222319,-8.4422636,1.67832994,0.995980263,1.00899994,-2.41000009,-2.5999999,-3,-0.200000003,0,0,3.0999999,3,2.5,-0.154244274,-0.078225404,0.304908842,-0.0473672487,-0.0203073677,0,0,0.0472116172,0.0202284381,0.229448467,0.097415857,0.229448467,0,0,0.0970965102,0.000319348066,0,1444,1935,1450,1404,4.86000013,-4.80000019,21.6700001,0,0.0199999996,0.540000021,0,0,1,-0.0210010745,0.0799737722
9.645482,1783676952.172509,166,-4.19760704,-2.08444357,-1.62152672,0,0.00809030235,-0.0598143861,0.910515726,3.48633552,11.4111481,2.582551,75.4780045,993.365601,0,0.724000037,-3.75852346,0.507988095,-0.89677906,3.53992319,-2.8617444,-3.03193521,0.995980263,1.00899994,-2.41000009,-2.5999999,-3,-0.200000003,0,0,3.0999999,3,2.5,0.0737388805,0.556971967,0.310936809,-0.0441126898,0.00850149803,0,0,0.0441870913,-0.00793951377,0.214749277,-0.0377957299,0.214749277,0,-0,-0.0381096676,0.000313937227,-0,1367,1828,1441,1414,4.86000013,-4.80000019,21.6700001,0,0.0199999996,0.540000021,0,0,1,-0.0377595052,0.0509116873
9.708112,1783676952.235139,167,-5.67473602,-2.54819751,-1.80335045,0,0.0395023003,-0.0841396078,0.982553363,0.324482232,4.7615633,-1.73965311,75.5279999,993.365601,0,0.633000016,-4.89450455,2.29387712,-2.37530541,3.06708384,-2.51919913,-0.773206711,0.99598819,1.00699997,-2.41000009,-2.5999999,-3,-0.200000003,0,0,3.0999999,3,2.5,-0.413200885,1.23267591,0.0599324629,-0.0579958186,0.0606980845,0,0,0.057579726,-0.0594567806,0.279837489,-0.285046697,0.279837489,0,0,-0.285392553,0.000345850422,-0,1398,1855,1452,1401,4.86000013,-4.80000019,21.6700001,0,0.0199999996,0.540000021,0,0,1,-0.0439113341,0.0422142781
9.770469,1783676952.297497,168,-6.18971491,-2.50967169,-1.97868347,0,-0.0670368597,-0.0489885136,1.07262015,4.87667131,10.2275143,-13.1188202,75.5780029,991.833374,0,0.0860000029,-2.61498523,-3.57251859,-2.90135646,3.12509608,0.286371231,-6.69761467,0.99662739,0.845999956,-2.41000009,-2.5999999,-3,-0.200000003,0,0,3.0999999,3,2.5,-0.225673169,0.250621766,0.0268276855,-0.0659646615,0.0883829966,0,0,0.0655632615,-0.0878507867,0.31863746,-0.421258718,0.31863746,0,0,-0.421683788,0.000425065984,-0,1367,1809,1447,1408,4.86000013,-4.80000019,21.6700001,0,0.0199999996,0.540000021,0,0,1,-0.0371231101,0.0350017883
9.816411,1783676952.343438,169,-6.34854317,-2.21153402,-2.21681786,0,0.120909989,0.0234438367,0.966973126,1.33942127,10.6316004,-11.6395226,75.628006,991.833374,0,0.492000014,1.38883889,7.1251812,-3.07717085,3.38561296,4.46600962,3.73956823,0.995980263,1.00899994,-2.41000009,-2.5999999,-3,-0.200000003,0,0,3.0999999,3,2.5,0.168120965,-0.0690553784,-0.169659153,-0.0626663193,0.0847749338,0,0,0.0628359541,-0.0848446116,0.305382758,-0.406741172,0.305382758,0,-0,-0.407254159,0.000512996688,0,1367,1822,1464,1387,4.86000013,-4.80000019,21.6700001,0,0.0199999996,0.540000021,0,0,1,-0.050063163,0.0140007138
9.909036,1783676952.436063,170,-6.01171827,-2.24190521,-2.55024529,0,0.193665892,-0.0458362512,0.970341265,-2.12964606,-6.35287237,-5.13701248,75.6780014,991.833374,0,0.414000034,-2.70448446,11.2748365,-2.72246623,3.33837152,0.0179817677,7.93646526,0.995980263,1.00899994,-2.41000009,-2.5999999,-3,-0.200000003,0,0,3.0999999,3,2.5,-0.103522137,-0.278103828,-0.644993305,-0.0586768724,0.0645559207,0,0,0.058572419,-0.0648365244,0.284661978,-0.310626596,0.284661978,0,0,-0.311215341,0.000588758325,0,1515,1950,1462,1390,4.86000013,-4.80000019,21.6700001,0,0.0199999996,0.540000021,0,0,1,0.097368598,0.00530330092
9.971163,1783676952.498190,171,-5.64239883,-0.540735245,-2.79024696,0,0.238452479,-0.0818064734,0.883674681,-5.16650009,2.72828484,-4.53437901,76.5279999,991.80957,0,0.134000003,-5.28910065,15.0397577,-2.34122491,5.03121233,-2.94787574,10.0085449,0.995980263,1.00899994,-2.41000009,-2.5999999,-3,-0.200000003,0,0,3.0999999,3,2.5,-0.373936057,0.22158666,0.0871417075,-0.0690817088,0.00952318683,0,0,0.0687044039,-0.00929960608,0.333903402,-0.0433055609,0.333903402,0,0,-0.0446381122,0.00133255112,-0,1499,1951,1455,1398,4.86000013,-4.80000019,21.6700001,0,0.0199999996,0.540000021,0,0,1,0.128976285,0.0093338117
10.002197,1783676952.529225,172,-6.13175869,-0.466984749,-2.61295509,0,-0.0586813539,-0.0602297708,0.935398161,0.358494282,14.5994024,4.17541885,76.5780029,991.841309,0,0.204000011,-3.68415761,-3.58229542,-2.83903027,5.18048906,-0.845127344,-8.76278496,0.995972216,1.01100004,-2.41000009,-2.5999999,-3,-0.200000003,0,0,3.0999999,3,2.5,-0.856774569,0.504965723,0.0150416456,-0.060219042,0.0255671479,0,0,0.0585360639,-0.0245170183,0.284485281,-0.116332904,0.284485281,0,0,-0.11768169,0.00134878734,-0,1367,1871,1455,1398,4.86000013,-4.80000019,21.6700001,0,0.0199999996,0.540000021,0,0,1,0.164402336,0.00954595208
10.063854,1783676952.590882,173,-7.11001396,-0.453849792,-2.21238327,0,0.108701237,-0.107549042,1.02059925,6.27943993,8.51986408,10.9147682,76.628006,991.841309,0,0.315000027,-6.01553249,6.04626989,-3.81181335,5.15473843,-2.20371914,0.891531467,0.995972216,1.01100004,-2.41000009,-2.5999999,-3,-0.200000003,0,0,3.0999999,3,2.5,-0.614737391,0.636934221,-0.114638209,-0.0677621514,0.0482796207,0,0,0.0671406537,-0.0476356819,0.326303571,-0.227265909,0.326303571,0,0,-0.228651285,0.0013853712,-0,1367,1803,1444,1411,4.86000013,-4.80000019,21.6700001,0,0.0199999996,0.540000021,0,0,1,0.175645322,-0.0203646645
10.138932,1783676952.665959,174,-7.63261223,-0.597763538,-1.54858589,0,-0.237938315,-0.0415716022,1.08514881,11.8770771,25.3248711,18.6772919,76.6780014,991.841309,0,0.0800000057,-2.19390488,-12.3586168,-4.35052729,5.07292795,2.15662241,-17.4315453,0.996643305,0.842000008,-2.41000009,-2.5999999,-3,-0.200000003,0,0,3.0999999,3,2.5,-0.955796421,0.0714932978,-0.041566968,-0.0552858189,0.0461984836,0,0,0.0535273999,-0.0460177325,0.260143161,-0.219449118,0.260143161,0,0,-0.220885128,0.00143601117,-0,1367,1803,1435,1421,4.86000013,-4.80000019,21.6700001,0,0.0199999996,0.540000021,0,0,1,0.202798218,-0.0407293513
10.202269,1783676952.729296,175,-7.86010313,-1.14863539,-0.790519714,0,0.0672418624,-0.00208523311,0.997501254,8.48080444,18.8985138,17.9927559,76.7280045,991.841309,0,0.498000026,-0.11977417,3.85648322,-4.58872509,4.4659915,4.46895075,-0.609508276,0.995984197,1.00800002,-2.41000009,-2.5999999,-3,-0.200000003,0,0,3.0999999,3,2.5,-1.00504863,-0.309343636,-0.316168249,-0.072199434,0.0320661739,0,0,0.0711863488,-0.0323779918,0.345965654,-0.153937504,0.345965654,0,0,-0.155414373,0.00147686165,0,1367,1803,1425,1431,4.86000013,-4.80000019,21.6700001,0,0.0199999996,0.540000021,0,0,1,0.179463699,-0.053457275
10.233855,1783676952.760883,176,-7.48659897,-1.71039343,0.0390911102,0,0.0492725,0.0161155909,1.01599157,7.18284035,8.64451504,7.44431114,76.7779999,991.841309,0,0.0910000056,0.908745706,2.77614713,-4.21790266,3.90633345,5.12664843,-1.13018632,0.995976269,1.00999999,-2.41000009,-2.5999999,-3,-0.200000003,0,0,3.0999999,3,2.5,-1.00996006,-0.567512453,-0.380157381,-0.0629046783,-0.00443944801,0,0,0.0618846156,0.00386626064,0.300759226,0.0200491026,0.300759226,0,0,0.0185580514,0.00149105198,0,1367,1803,1416,1439,4.86000013,-4.80000019,21.6700001,0,0.0199999996,0.540000021,0,0,1,0.196646392,-0.0443355963
10.295171,1783676952.822199,177,-6.84352016,-2.40638375,0.750400543,0,-0.0495055988,0.011996109,1.04409397,1.51619673,13.5818481,13.9987612,76.8280029,991.797668,0,0.114000008,0.658270419,-2.71446109,-3.5690062,3.2266109,4.2272768,-5.94107199,0.996496379,0.879000008,-2.41000009,-2.5999999,-3,-0.200000003,0,0,3.0999999,3,2.5,-0.971068263,-0.569994628,-0.47079286,-0.0691038966,-0.0353772081,0,0,0.0671110302,0.0342280082,0.326159626,0.165766135,0.326159626,0,0,0.164294451,0.00147168676,0,1367,1863,1407,1447,4.86000013,-4.80000019,21.6700001,0,0.0199999996,0.540000021,0,0,1,0.193676546,-0.0328804553
10.371217,1783676952.898244,178,-6.02241278,-2.87771797,1.32865334,0,-0.152806729,0.0631310046,1.09542751,-3.73018599,17.1424999,4.72318363,76.878006,991.797668,0,0.283000022,3.29838657,-7.92824554,-2.75743127,2.77749562,6.0558176,-10.7057409,0.995980263,1.00899994,-2.41000009,-2.5999999,-3,-0.200000003,0,0,3.0999999,3,2.5,-0.765146017,-0.539607942,-0.609147906,-0.0630279481,-0.0584601127,0,0,0.0622559153,0.0579156466,0.302563757,0.279419124,0.302563757,0,0,0.27799511,0.00142401294,0,1367,1931,1402,1452,4.86000013,-4.80000019,21.6700001,0,0.0199999996,0.540000021,0,0,1,0.191343099,-0.0093338117
10.449116,1783676952.976143,179,-5.68923378,-3.19611645,1.8222084,0,-0.126518071,0.0288917124,1.05272472,-2.42915249,24.1220779,26.5736046,76.9280014,991.797668,0,0.493000031,1.57207072,-6.85047197,-2.42194581,2.46747327,3.99401665,-9.31794548,0.994482636,1.38699996,-2.41000009,-2.5999999,-3,-0.200000003,0,0,3.0999999,3,2.5,-0.573191702,-0.101691186,-0.652184904,-0.0507715903,-0.0618244559,0,0,0.0497857518,0.0617121756,0.241958767,0.297579587,0.241958767,0,0,0.296218455,0.00136112852,0,1367,1936,1397,1456,4.86000013,-4.80000019,21.6700001,0,0.0199999996,0.540000021,0,0,1,0.207889378,0.0093337968
10.479708,1783676953.006735,180,-5.71149635,-3.51993823,2.38299179,0,-0.0495369881,-0.0336775854,0.984297037,1.304672,22.1479912,20.0880356,76.9780045,991.797668,0,0.783000052,-1.95960283,-2.87942767,-2.42403674,2.11228681,0.464433908,-4.99171448,0.995984197,1.00800002,-2.41000009,-2.5999999,-3,-0.200000003,0,0,3.0999999,3,2.5,-0.486666858,0.264536649,-0.494702548,-0.0368000604,-0.0502922982,0,0,0.0363094993,0.0505589508,0.17646417,0.243986472,0.17646417,0,0,0.242682979,0.00130348862,-0,1367,1880,1390,1462,4.86000013,-4.80000019,21.6700001,0,0.0199999996,0.540000021,0,0,1,0.207252994,0.016758427
10.541754,1783676953.068781,181,-6.26325226,-3.53591609,2.75999069,0,-0.225388736,-0.0825551227,1.01051068,7.19108534,32.8934479,7.98981142,77.029007,991.797668,0,0.0890000015,-4.67048836,-12.5332594,-2.96598125,2.14469409,-1.70450711,-14.6779537,0.995337844,1.171,-2.41000009,-2.5999999,-3,-0.200000003,0,0,3.0999999,3,2.5,-0.34021765,0.33211264,-0.38789767,-0.0160519183,-0.0258199573,0,0,0.0156535227,0.0262088608,0.0760761201,0.12706694,0.0760761201,0,0,0.125802532,0.00126441254,-0,1367,1803,1380,1470,4.86000013,-4.80000019,21.6700001,0,0.0199999996,0.540000021,0,0,1,0.195797861,0.00700034946
10.604923,1783676953.131950,182,-6.78586197,-3.57558393,3.03067684,0,-0.297299117,-0.104555555,1.017959,13.012722,35.8083763,13.2248573,77.0790024,991.861145,0,0.0890000015,-5.86434078,-16.1999378,-3.486063,2.11727333,-2.37827778,-18.3172112,0.995595515,1.10600007,-2.41000009,-2.5999999,-3,-0.200000003,0,0,3.0999999,3,2.5,-0.597763598,0.0365419611,-0.433202028,0.0125902165,-0.0127974292,0,0,-0.0132513428,0.0128378449,-0.0644015297,0.0628691614,-0.0644015297,0,0,0.0616216585,0.00124750566,-0,1367,1803,1382,1468,4.86000013,-4.80000019,21.6700001,0,0.0199999996,0.540000021,0,0,1,0.190070301,-0.0241830572
10.635967,1783676953.162994,183,-7.32707644,-3.01247478,3.1947403,0,-0.00752793811,-0.0574154928,0.981447875,12.2839336,42.0270195,1.37481284,77.1290054,991.861145,0,0.222000018,-3.34803343,-0.43871358,-4.0405302,2.61194324,0.692496777,-3.0506568,0.99598819,1.00699997,-2.41000009,-2.5999999,-3,-0.200000003,0,0,3.0999999,3,2.5,-0.0234492645,-0.00471256999,-0.294461668,0.0291024502,-0.00772904884,0,0,-0.0291024502,0.00772904884,-0.141437918,0.0383376032,-0.141437918,0,0,0.0370994359,0.00123816729,0,1367,1803,1384,1466,4.86000013,-4.80000019,21.6700001,0,0.0199999996,0.540000021,0,0,1,0.191555217,-0.0345775187
10.698859,1783676953.225886,184,-7.2448101,-2.58349681,3.20396709,0,-0.219500855,-0.0304236803,1.02725482,8.92321587,50.5543861,3.53815269,77.1790009,991.861145,0,0.0890000015,-1.69640398,-12.056283,-3.96705246,3.10591769,2.27064848,-15.1622009,0.994906068,1.27999997,-2.41000009,-2.5999999,-3,-0.200000003,0,0,3.0999999,3,2.5,-0.203915328,-0.281566411,-0.327272952,0.0715111196,-0.0223502442,0,0,-0.0717721283,0.0219898392,-0.34881255,0.106774732,-0.34881255,0,0,0.105551235,0.00122349896,0,1367,1803,1386,1465,4.86000013,-4.80000019,21.6700001,0,0.0199999996,0.540000021,0,0,1,0.159947544,-0.0296984836
10.761544,1783676953.288571,185,-6.9260807,-1.9353466,3.0273447,0,-0.161539778,-0.05528716,1.03308856,1.45299137,55.0654602,3.91387439,77.2290039,991.861145,0,0.389000028,-3.06334043,-8.87464237,-3.6390636,3.72733998,0.575723171,-12.6019821,0.995992124,1.00599992,-2.41000009,-2.5999999,-3,-0.200000003,0,0,3.0999999,3,2.5,0.0668608695,-0.223599061,-0.342752844,0.0794617683,-0.0338418186,0,0,-0.0794617683,0.0338418186,-0.386184216,0.163635865,-0.386184216,0,-0,0.162440732,0.00119513634,0,1367,1865,1384,1466,4.86000013,-4.80000019,21.6700001,0,0.0199999996,0.540000021,0,0,1,0.147431761,-0.0197282806
10.823158,1783676953.350185,186,-6.25050497,-1.1886549,2.67531681,0,-0.249382004,0.020965049,1.04860604,-5.4604907,41.2254105,-7.29872322,77.279007,991.861145,0,0.271000028,1.14537668,-13.3751259,-2.98401332,4.52248573,4.12938976,-17.8976116,0.994470716,1.38999999,-2.41000009,-2.5999999,-3,-0.200000003,0,0,3.0999999,3,2.5,0.167716235,-0.230318889,-0.384747654,0.104832046,-0.0400495529,0,0,-0.104598917,0.0397294089,-0.50835073,0.191858754,-0.50835073,0,-0,0.190701172,0.00115758029,0,1367,1951,1399,1455,4.86000013,-4.80000019,21.6700001,0,0.0199999996,0.540000021,0,0,1,0.1139149,0.018455483
10.884542,1783676953.411570,187,-5.94755554,-0.64367485,2.18499565,0,-0.0691248178,-0.0880630165,1.00775409,-10.5663071,39.0979233,11.0315685,77.3290024,991.837341,0,0.714000046,-4.99412966,-3.9090898,-2.64922452,5.00273657,-2.34490514,-8.91182613,0.996158838,0.963999987,-2.41000009,-2.5999999,-3,-0.200000003,0,0,3.0999999,3,2.5,0.309729517,0.156476021,-0.455727935,0.121989876,-0.029480312,0,0,-0.121989876,0.029480312,-0.592870831,0.142626107,-0.592870831,0,-0,0.14150551,0.00112060132,-0,1367,1951,1389,1462,4.86000013,-4.80000019,21.6700001,0,0.0199999996,0.540000021,0,0,1,0.0958836824,0.0356381834
10.945934,1783676953.472961,188,-5.8350668,-0.519574642,1.80344391,0,-0.127400681,-0.160003021,1.00607967,-11.0776787,37.3350296,5.97571087,77.3790054,991.837341,0,0.604000032,-9.03642178,-7.12835407,-2.51959801,5.14183044,-6.51682377,-12.2701845,0.99598819,1.00699997,-2.41000009,-2.5999999,-3,-0.200000003,0,0,3.0999999,3,2.5,0.288735062,0.488165945,-0.348209709,0.127555698,-0.00602670154,0,0,-0.127555698,0.00602670154,-0.619920731,0.0300298892,-0.619920731,0,-0,0.0289281681,0.00110172085,-0,1367,1951,1399,1454,4.86000013,-4.80000019,21.6700001,0,0.0199999996,0.540000021,0,0,1,0.0360624455,0.0674579889
11.008267,1783676953.535294,189,-6.09955072,-0.428033352,1.22794914,0,0.0714616701,-0.0979432166,0.931658685,-7.15167856,23.4112225,-13.150773,77.4290009,991.837341,0,0.411000013,-6.00133467,4.36226368,-2.79711747,5.18752241,-3.2042172,-0.825258732,0.995908856,1.02700007,-2.41000009,-2.5999999,-3,-0.200000003,0,0,3.0999999,3,2.5,0.429539919,0.548293769,-0.275097907,0.13489227,0.022770863,0,0,-0.134451136,-0.0222077649,-0.653432548,-0.105487026,-0.653432548,0,-0,-0.106597275,0.00111024722,-0,1367,1951,1424,1432,4.86000013,-4.80000019,21.6700001,0,0.0199999996,0.540000021,0,0,1,-0.00466690585,0.063639611
11.038386,1783676953.565414,190,-6.64317226,-0.586074352,0.503622055,0,0.0912468657,-0.142083272,1.00360954,-0.409447014,8.26600838,-13.4967127,77.4790039,991.837341,0,0.455000013,-8.0579443,5.14396048,-3.33441067,5.0256176,-4.72353363,0.118342876,0.995884955,1.03299999,-2.41000009,-2.5999999,-3,-0.200000003,0,0,3.0999999,3,2.5,0.468081295,0.481563181,-0.0356192477,0.13365823,0.0494924225,0,0,-0.13365823,-0.0494924225,-0.649578989,-0.236415699,-0.649578989,0,-0,-0.23756364,0.00114794797,-0,1367,1872,1433,1423,4.86000013,-4.80000019,21.6700001,0,0.0199999996,0.540000021,0,0,1,-0.0791252479,0.0422142744
11.100646,1783676953.627673,191,-7.38481617,-1.3232584,-0.200340271,0,-0.00915434211,-0.0995830223,0.951204002,4.28843498,-7.62066317,-22.0537186,77.529007,991.837341,0,0.0730000064,-5.97661257,-0.548397899,-4.0865078,4.31202412,-1.89010477,-4.86042213,0.995246708,1.19400001,-2.41000009,-2.5999999,-3,-0.200000003,0,0,3.0999999,3,2.5,0.188947499,0.389935881,0.181353346,0.12693131,0.0663787276,0,0,-0.126705706,-0.0659131408,-0.615789771,-0.315176725,-0.615789771,0,-0,-0.316383094,0.00120637706,-0,1424,1803,1440,1415,4.86000013,-4.80000019,21.6700001,0,0.0199999996,0.540000021,0,0,1,-0.12749134,0.0294863544
11.162978,1783676953.690005,192,-7.63330507,-2.12895083,-0.912611008,0,-0.0902408808,-0.120167397,1.01943326,2.31435609,-5.78789043,2.31753325,77.5790024,991.888916,0,0.0790000036,-6.72281265,-5.02406931,-4.33439875,3.51749563,-2.38841391,-8.54156494,0.99598819,1.00699997,-2.41000009,-2.5999999,-3,-0.200000003,0,0,3.0999999,3,2.5,0.603104711,0.147345275,0.312255621,0.117733076,0.0670430809,0,0,-0.11712575,-0.0668947026,-0.569231153,-0.319821447,-0.569231153,0,-0,-0.321094573,0.0012731282,-0,1515,1847,1439,1417,4.86000013,-4.80000019,21.6700001,0,0.0199999996,0.540000021,0,0,1,-0.145310432,0.018455483
11.224021,1783676953.751049,193,-7.24400043,-1.85477662,-1.73096466,0,0.155643836,-0.171899259,0.844948053,-5.54140759,-18.6924744,-4.07273293,77.6290054,991.888916,0,0.272000015,-11.4995213,10.2321386,-3.92455745,3.7315557,-7.57496357,6.5005827,0.996023893,0.998000026,-2.41000009,-2.5999999,-3,-0.200000003,0,0,3.0999999,3,2.5,1.30158424,-0.192576021,0.318053007,0.173828989,0.059288118,0,0,-0.173828989,-0.059288118,-0.844808936,-0.283245057,-0.844808936,0,-0,-0.284582973,0.00133791997,0,1515,1939,1452,1402,4.86000013,-4.80000019,21.6700001,0,0.0199999996,0.540000021,0,0,1,-0.145310432,0.018455483
11.285504,1783676953.812531,194,-6.62157536,-2.52777576,-2.71101379,0,0.157256141,-0.0595648214,0.931468248,-10.0989876,-41.1814728,-14.0336514,77.6790009,991.888916,0,0.409000009,-3.65892458,9.56348991,-3.33069229,3.05348539,-0.328232288,6.51000452,0.995250702,1.19299996,-2.41000009,-2.5999999,-3,-0.200000003,0,0,3.0999999,3,2.5,1.17569542,-0.0885093808,0.149931699,0.153824747,0.0267492905,0,0,-0.152422145,-0.026854882,-0.740771651,-0.12752676,-0.740771651,0,-0,-0.128903434,0.00137666822,0,1515,1951,1467,1384,4.86000013,-4.80000019,21.6700001,0,0.0199999996,0.540000021,0,0,1,-0.114339165,0.0180312172
11.347603,1783676953.874630,195,-6.19857121,-3.03436327,-3.56118011,0,0.18991819,-0.116740398,0.924755037,-19.7585316,-41.7197227,-15.5955343,77.7300034,991.888916,0,0.338000029,-7.19491816,11.5166101,-2.8919673,2.54177475,-4.30295086,8.9748354,0.995984197,1.00800002,-2.41000009,-2.5999999,-3,-0.200000003,0,0,3.0999999,3,2.5,1.16848123,0.314263314,-0.0294607989,0.216592282,0.0271136779,0,0,-0.21541445,-0.0267968997,-1.04691422,-0.127223283,-1.04691422,0,-0,-0.128625125,0.00140184758,-0,1515,1951,1479,1368,4.86000013,-4.80000019,21.6700001,0,0.0199999996,0.540000021,0,0,1,-0.114339165,0.0180312172
11.408524,1783676953.935551,196,-5.91763163,-3.60937285,-4.10586929,0,0.200644448,-0.121785387,1.0195533,-21.5982819,-48.3206711,-6.05546904,77.7800064,991.888916,0,0.0700000003,-6.81169176,11.0566902,-2.61768174,1.97980964,-4.19400978,9.07688046,0.997466445,0.63499999,-2.41000009,-2.5999999,-3,-0.200000003,0,0,3.0999999,3,2.5,0.981431067,0.338897437,-0.529081941,0.267970592,0.0467719622,0,0,-0.265989304,-0.0460925922,-1.29270804,-0.219805941,-1.29270804,0,-0,-0.221244454,0.00143851968,-0,1515,1951,1482,1363,4.86000013,-4.80000019,21.6700001,0,0.0199999996,0.540000021,0,0,1,-0.114339165,0.0180312172
