index,timestamp_us,dt_us,raw_accel_x,raw_accel_y,raw_accel_z,raw_gyro_x,raw_gyro_y,raw_gyro_z,accel_x_g,accel_y_g,accel_z_g,gyro_x_dps,gyro_y_dps,gyro_z_dps,accel_filt_x_g,accel_filt_y_g,accel_filt_z_g,gyro_filt_x_dps,gyro_filt_y_dps,gyro_filt_z_dps,roll_deg,pitch_deg,yaw_deg,motor_upper_us,motor_lower_us,servo_alpha_us,servo_beta_us,accel_error_deg,fusion_flags,flight_flags,armed,gyro_bias_ready
0,76467360,,9,2034,-34,-9,-8,1,0.00439453125,0.9931640625,-0.0166015625,-0.27439024390243905,-0.24390243902439027,0.030487804878048783,0.016,-0.003,0.993,0.0,-0.07,0.01,0.21,-0.99,0.17,1100,1100,1500,1500,0.06,0,2,0,1
1,76468369,1009,8,2034,-35,-11,-7,1,0.00390625,0.9931640625,-0.01708984375,-0.3353658536585366,-0.2134146341463415,0.030487804878048783,0.016,-0.003,0.993,0.0,-0.07,0.02,0.21,-0.99,0.17,1100,1100,1500,1500,0.05,0,2,0,1
2,76469377,1008,7,2033,-37,-12,-7,1,0.00341796875,0.99267578125,-0.01806640625,-0.3658536585365854,-0.2134146341463415,0.030487804878048783,0.016,-0.003,0.993,-0.01,-0.05,0.03,0.21,-0.99,0.17,1100,1100,1500,1500,0.04,0,2,0,1
3,76470385,1008,6,2034,-37,-10,-8,1,0.0029296875,0.9931640625,-0.01806640625,-0.30487804878048785,-0.24390243902439027,0.030487804878048783,0.016,-0.003,0.993,-0.01,-0.06,0.03,0.21,-0.99,0.17,1100,1100,1500,1500,0.03,0,2,0,1
4,76471394,1009,6,2036,-35,-10,-9,1,0.0029296875,0.994140625,-0.01708984375,-0.30487804878048785,-0.27439024390243905,0.030487804878048783,0.016,-0.003,0.993,-0.01,-0.07,0.01,0.21,-0.99,0.17,1100,1100,1500,1500,0.03,0,2,0,1
5,76472402,1008,6,2036,-32,-11,-9,1,0.0029296875,0.994140625,-0.015625,-0.3353658536585366,-0.27439024390243905,0.030487804878048783,0.016,-0.003,0.993,-0.01,-0.06,0.0,0.21,-0.99,0.17,1100,1100,1500,1500,0.04,0,2,0,1
6,76473411,1009,6,2035,-30,-13,-9,2,0.0029296875,0.99365234375,-0.0146484375,-0.39634146341463417,-0.27439024390243905,0.06097560975609757,0.016,-0.003,0.993,-0.02,-0.04,0.0,0.21,-0.99,0.17,1100,1100,1500,1500,0.06,0,2,0,1
7,76474419,1008,7,2033,-31,-14,-9,2,0.00341796875,0.99267578125,-0.01513671875,-0.426829268292683,-0.27439024390243905,0.06097560975609757,0.016,-0.003,0.993,-0.03,-0.01,0.0,0.21,-0.99,0.17,1100,1100,1500,1500,0.06,0,2,0,1
8,76475427,1008,7,2030,-32,-14,-9,2,0.00341796875,0.9912109375,-0.015625,-0.426829268292683,-0.27439024390243905,0.06097560975609757,0.016,-0.003,0.993,-0.03,0.0,0.0,0.21,-0.99,0.17,1100,1100,1500,1500,0.07,0,2,0,1
9,76476436,1009,7,2030,-33,-15,-9,2,0.00341796875,0.9912109375,-0.01611328125,-0.4573170731707317,-0.27439024390243905,0.06097560975609757,0.016,-0.003,0.992,-0.04,0.01,0.0,0.21,-0.99,0.17,1100,1100,1500,1500,0.07,0,2,0,1
10,76477444,1008,7,2031,-34,-14,-9,2,0.00341796875,0.99169921875,-0.0166015625,-0.426829268292683,-0.27439024390243905,0.06097560975609757,0.016,-0.003,0.992,-0.04,0.02,0.0,0.21,-0.99,0.17,1100,1100,1500,1500,0.06,0,2,0,1
11,76478452,1008,8,2031,-35,-12,-8,2,0.00390625,0.99169921875,-0.01708984375,-0.3658536585365854,-0.24390243902439027,0.06097560975609757,0.016,-0.003,0.992,-0.04,0.0,0.0,0.21,-0.99,0.17,1100,1100,1500,1500,0.05,0,2,0,1
12,76479461,1009,7,2031,-37,-11,-7,1,0.00341796875,0.99169921875,-0.01806640625,-0.3353658536585366,-0.2134146341463415,0.030487804878048783,0.016,-0.003,0.992,-0.03,-0.01,0.02,0.21,-0.99,0.17,1100,1100,1500,1500,0.04,0,2,0,1
13,76480469,1008,6,2032,-37,-10,-8,1,0.0029296875,0.9921875,-0.01806640625,-0.30487804878048785,-0.24390243902439027,0.030487804878048783,0.016,-0.003,0.992,-0.03,-0.04,0.02,0.21,-0.99,0.17,1100,1100,1500,1500,0.03,0,2,0,1
14,76481477,1008,8,2033,-35,-11,-8,1,0.00390625,0.99267578125,-0.01708984375,-0.3353658536585366,-0.24390243902439027,0.030487804878048783,0.016,-0.003,0.992,-0.02,-0.04,0.02,0.21,-0.99,0.17,1100,1100,1500,1500,0.02,0,2,0,1
15,76482485,1008,9,2034,-36,-13,-8,1,0.00439453125,0.9931640625,-0.017578125,-0.39634146341463417,-0.24390243902439027,0.030487804878048783,0.016,-0.003,0.992,-0.02,-0.03,0.02,0.21,-0.99,0.17,1100,1100,1500,1500,0.01,0,2,0,1
16,76483494,1009,10,2035,-37,-13,-8,0,0.0048828125,0.99365234375,-0.01806640625,-0.39634146341463417,-0.24390243902439027,0.0,0.017,-0.003,0.992,-0.01,-0.01,0.02,0.21,-0.99,0.17,1100,1100,1500,1500,0.0,0,2,0,1
17,76484502,1008,10,2035,-36,-12,-7,0,0.0048828125,0.99365234375,-0.017578125,-0.3658536585365854,-0.2134146341463415,0.0,0.017,-0.003,0.992,0.0,-0.02,0.03,0.21,-0.99,0.17,1100,1100,1500,1500,0.01,0,2,0,1
18,76485510,1008,9,2034,-35,-12,-8,0,0.00439453125,0.9931640625,-0.01708984375,-0.3658536585365854,-0.24390243902439027,0.0,0.017,-0.004,0.992,0.0,-0.02,0.02,0.21,-0.99,0.17,1100,1100,1500,1500,0.02,0,2,0,1
19,76486519,1009,8,2034,-35,-13,-8,1,0.00390625,0.9931640625,-0.01708984375,-0.39634146341463417,-0.24390243902439027,0.030487804878048783,0.017,-0.004,0.992,0.0,-0.01,0.02,0.21,-0.99,0.17,1100,1100,1500,1500,0.02,0,2,0,1
20,76487527,1008,7,2033,-36,-13,-8,1,0.00341796875,0.99267578125,-0.017578125,-0.39634146341463417,-0.24390243902439027,0.030487804878048783,0.017,-0.003,0.992,0.0,0.0,0.02,0.21,-0.99,0.17,1100,1100,1500,1500,0.01,0,2,0,1
21,76488535,1008,9,2033,-35,-12,-8,2,0.00439453125,0.99267578125,-0.01708984375,-0.3658536585365854,-0.24390243902439027,0.06097560975609757,0.017,-0.003,0.992,-0.02,-0.01,0.02,0.21,-0.99,0.17,1100,1100,1500,1500,0.01,0,2,0,1
22,76489544,1009,10,2034,-35,-13,-8,2,0.0048828125,0.9931640625,-0.01708984375,-0.39634146341463417,-0.24390243902439027,0.06097560975609757,0.017,-0.004,0.992,-0.03,0.0,0.02,0.21,-0.99,0.17,1100,1100,1500,1500,0.02,0,2,0,1
23,76490552,1008,9,2036,-36,-14,-9,2,0.00439453125,0.994140625,-0.017578125,-0.426829268292683,-0.27439024390243905,0.06097560975609757,0.017,-0.004,0.993,-0.03,0.0,0.01,0.21,-0.99,0.17,1100,1100,1500,1500,0.02,0,2,0,1
24,76491561,1009,7,2036,-35,-14,-9,1,0.00341796875,0.994140625,-0.01708984375,-0.426829268292683,-0.27439024390243905,0.030487804878048783,0.017,-0.004,0.993,-0.03,0.01,0.0,0.21,-0.99,0.17,1100,1100,1500,1500,0.02,0,2,0,1
25,76492569,1008,7,2034,-32,-12,-8,0,0.00341796875,0.9931640625,-0.015625,-0.3658536585365854,-0.24390243902439027,0.0,0.016,-0.003,0.993,-0.01,0.0,0.01,0.21,-0.99,0.17,1100,1100,1500,1500,0.02,0,2,0,1
26,76493577,1008,8,2033,-32,-10,-9,0,0.00390625,0.99267578125,-0.015625,-0.30487804878048785,-0.27439024390243905,0.0,0.016,-0.003,0.993,0.0,-0.03,0.0,0.21,-0.99,0.17,1100,1100,1500,1500,0.03,0,2,0,1
27,76494586,1009,9,2031,-34,-11,-9,1,0.00439453125,0.99169921875,-0.0166015625,-0.3353658536585366,-0.27439024390243905,0.030487804878048783,0.016,-0.004,0.992,-0.01,-0.03,0.0,0.21,-0.99,0.17,1100,1100,1500,1500,0.03,0,2,0,1
28,76495594,1008,9,2030,-35,-13,-9,1,0.00439453125,0.9912109375,-0.01708984375,-0.39634146341463417,-0.27439024390243905,0.030487804878048783,0.016,-0.004,0.992,-0.01,-0.02,0.0,0.21,-0.99,0.17,1100,1100,1500,1500,0.03,0,2,0,1
29,76496602,1008,9,2029,-34,-15,-9,0,0.00439453125,0.99072265625,-0.0166015625,-0.4573170731707317,-0.27439024390243905,0.0,0.016,-0.004,0.992,0.0,0.0,0.0,0.21,-0.99,0.17,1100,1100,1500,1500,0.03,0,2,0,1
30,76497611,1009,8,2030,-35,-16,-9,1,0.00390625,0.9912109375,-0.01708984375,-0.48780487804878053,-0.27439024390243905,0.030487804878048783,0.016,-0.004,0.992,0.0,0.03,0.0,0.21,-0.99,0.17,1100,1100,1500,1500,0.03,0,2,0,1
31,76498619,1008,8,2032,-36,-15,-9,1,0.00390625,0.9921875,-0.017578125,-0.4573170731707317,-0.27439024390243905,0.030487804878048783,0.016,-0.004,0.992,-0.01,0.04,0.0,0.21,-0.99,0.17,1100,1100,1500,1500,0.02,0,2,0,1
32,76499628,1009,9,2033,-36,-13,-9,1,0.00439453125,0.99267578125,-0.017578125,-0.39634146341463417,-0.27439024390243905,0.030487804878048783,0.017,-0.004,0.992,-0.01,0.02,0.0,0.21,-0.99,0.17,1100,1100,1500,1500,0.02,0,2,0,1
33,76500636,1008,10,2034,-36,-13,-10,1,0.0048828125,0.9931640625,-0.017578125,-0.39634146341463417,-0.30487804878048785,0.030487804878048783,0.017,-0.004,0.992,-0.01,0.02,-0.01,0.21,-0.99,0.17,1100,1100,1500,1500,0.03,0,2,0,1
34,76501644,1008,8,2035,-35,-15,-10,1,0.00390625,0.99365234375,-0.01708984375,-0.4573170731707317,-0.30487804878048785,0.030487804878048783,0.017,-0.004,0.992,-0.01,0.03,-0.02,0.21,-0.99,0.17,1100,1100,1500,1500,0.03,0,2,0,1
35,76502653,1009,6,2035,-35,-16,-10,0,0.0029296875,0.99365234375,-0.01708984375,-0.48780487804878053,-0.30487804878048785,0.0,0.017,-0.003,0.992,0.0,0.05,-0.02,0.21,-0.99,0.17,1100,1100,1500,1500,0.01,0,2,0,1
36,76503661,1008,7,2035,-34,-15,-9,-1,0.00341796875,0.99365234375,-0.0166015625,-0.4573170731707317,-0.27439024390243905,-0.030487804878048783,0.017,-0.003,0.992,0.0,0.05,-0.02,0.21,-0.99,0.17,1100,1100,1500,1500,0.01,0,2,0,1
37,76504669,1008,7,2035,-32,-13,-8,-1,0.00341796875,0.99365234375,-0.015625,-0.39634146341463417,-0.24390243902439027,-0.030487804878048783,0.016,-0.003,0.993,0.02,0.03,0.0,0.21,-0.99,0.17,1100,1100,1500,1500,0.02,0,2,0,1
38,76505678,1009,7,2035,-32,-13,-8,-2,0.00341796875,0.99365234375,-0.015625,-0.39634146341463417,-0.24390243902439027,-0.06097560975609757,0.016,-0.003,0.993,0.03,0.02,0.0,0.21,-0.99,0.17,1100,1100,1500,1500,0.03,0,2,0,1
39,76506686,1008,8,2034,-33,-15,-8,-2,0.00390625,0.9931640625,-0.01611328125,-0.4573170731707317,-0.24390243902439027,-0.06097560975609757,0.016,-0.003,0.993,0.04,0.03,0.0,0.21,-0.99,0.17,1100,1100,1500,1500,0.04,0,2,0,1
40,76507695,1009,10,2033,-34,-16,-8,0,0.0048828125,0.99267578125,-0.0166015625,-0.48780487804878053,-0.24390243902439027,0.0,0.016,-0.003,0.993,0.03,0.05,0.01,0.21,-0.99,0.17,1100,1100,1500,1500,0.04,0,2,0,1
41,76508703,1008,12,2033,-35,-17,-8,1,0.005859375,0.99267578125,-0.01708984375,-0.5182926829268293,-0.24390243902439027,0.030487804878048783,0.016,-0.004,0.992,0.01,0.07,0.01,0.21,-0.99,0.17,1100,1100,1500,1500,0.04,0,2,0,1
42,76509711,1008,10,2035,-35,-16,-8,0,0.0048828125,0.99365234375,-0.01708984375,-0.48780487804878053,-0.24390243902439027,0.0,0.016,-0.004,0.993,0.01,0.08,0.01,0.21,-0.99,0.17,1100,1100,1500,1500,0.05,0,2,0,1
43,76510720,1009,8,2035,-35,-13,-7,0,0.00390625,0.99365234375,-0.01708984375,-0.39634146341463417,-0.2134146341463415,0.0,0.016,-0.004,0.993,0.01,0.05,0.03,0.21,-0.99,0.17,1100,1100,1500,1500,0.04,0,2,0,1
44,76511728,1008,7,2034,-36,-13,-7,-1,0.00341796875,0.9931640625,-0.017578125,-0.39634146341463417,-0.2134146341463415,-0.030487804878048783,0.016,-0.004,0.993,0.02,0.03,0.03,0.21,-0.99,0.17,1100,1100,1500,1500,0.03,0,2,0,1
45,76512737,1009,6,2033,-37,-13,-7,-1,0.0029296875,0.99267578125,-0.01806640625,-0.39634146341463417,-0.2134146341463415,-0.030487804878048783,0.017,-0.003,0.993,0.03,0.02,0.04,0.21,-0.99,0.17,1100,1100,1500,1500,0.01,0,2,0,1
46,76513745,1008,6,2033,-37,-14,-8,-1,0.0029296875,0.99267578125,-0.01806640625,-0.426829268292683,-0.24390243902439027,-0.030487804878048783,0.017,-0.003,0.993,0.03,0.02,0.03,0.21,-0.99,0.17,1100,1100,1500,1500,0.0,0,2,0,1
47,76514753,1008,6,2034,-36,-16,-8,-1,0.0029296875,0.9931640625,-0.017578125,-0.48780487804878053,-0.24390243902439027,-0.030487804878048783,0.017,-0.003,0.993,0.03,0.05,0.03,0.21,-0.99,0.17,1100,1100,1500,1500,0.0,0,2,0,1
48,76515761,1008,6,2035,-36,-17,-9,-1,0.0029296875,0.99365234375,-0.017578125,-0.5182926829268293,-0.27439024390243905,-0.030487804878048783,0.017,-0.003,0.993,0.03,0.07,0.01,0.21,-0.99,0.17,1100,1100,1500,1500,0.0,0,2,0,1
49,76516770,1009,5,2035,-35,-17,-9,-1,0.00244140625,0.99365234375,-0.01708984375,-0.5182926829268293,-0.27439024390243905,-0.030487804878048783,0.017,-0.003,0.993,0.04,0.09,0.0,0.21,-0.99,0.17,1100,1100,1500,1500,0.01,0,2,0,1
50,76517778,1008,6,2035,-33,-16,-8,-1,0.0029296875,0.99365234375,-0.01611328125,-0.48780487804878053,-0.24390243902439027,-0.030487804878048783,0.017,-0.003,0.993,0.04,0.09,0.01,0.21,-0.99,0.17,1100,1100,1500,1500,0.02,0,2,0,1
51,76518787,1009,6,2035,-33,-13,-8,-1,0.0029296875,0.99365234375,-0.01611328125,-0.39634146341463417,-0.24390243902439027,-0.030487804878048783,0.016,-0.003,0.993,0.04,0.06,0.01,0.21,-0.99,0.17,1100,1100,1500,1500,0.02,0,2,0,1
52,76519795,1008,5,2035,-34,-11,-9,-2,0.00244140625,0.99365234375,-0.0166015625,-0.3353658536585366,-0.27439024390243905,-0.06097560975609757,0.016,-0.003,0.993,0.05,0.02,0.0,0.21,-0.99,0.17,1100,1100,1500,1500,0.03,0,2,0,1
53,76520803,1008,4,2036,-36,-12,-8,-2,0.001953125,0.994140625,-0.017578125,-0.3658536585365854,-0.24390243902439027,-0.06097560975609757,0.017,-0.002,0.993,0.05,0.0,0.01,0.21,-0.99,0.17,1100,1100,1500,1500,0.04,0,2,0,1
54,76521812,1009,6,2035,-36,-13,-7,-1,0.0029296875,0.99365234375,-0.017578125,-0.39634146341463417,-0.2134146341463415,-0.030487804878048783,0.017,-0.002,0.993,0.05,0.0,0.02,0.21,-0.99,0.17,1100,1100,1500,1500,0.04,0,2,0,1
55,76522820,1008,8,2034,-37,-13,-7,-1,0.00390625,0.9931640625,-0.01806640625,-0.39634146341463417,-0.2134146341463415,-0.030487804878048783,0.017,-0.003,0.993,0.04,0.0,0.03,0.21,-0.99,0.17,1100,1100,1500,1500,0.03,0,2,0,1
56,76523829,1009,8,2034,-38,-11,-9,-1,0.00390625,0.9931640625,-0.0185546875,-0.3353658536585366,-0.27439024390243905,-0.030487804878048783,0.017,-0.003,0.993,0.04,-0.01,0.02,0.21,-0.99,0.17,1100,1100,1500,1500,0.02,0,2,0,1
57,76524837,1008,7,2034,-37,-12,-9,-1,0.00341796875,0.9931640625,-0.01806640625,-0.3658536585365854,-0.27439024390243905,-0.030487804878048783,0.017,-0.003,0.993,0.04,-0.02,0.01,0.21,-0.99,0.17,1100,1100,1500,1500,0.02,0,2,0,1
58,76525845,1008,7,2032,-36,-15,-9,0,0.00341796875,0.9921875,-0.017578125,-0.4573170731707317,-0.27439024390243905,0.0,0.017,-0.003,0.993,0.03,0.0,0.0,0.21,-0.99,0.17,1100,1100,1500,1500,0.02,0,2,0,1
59,76526854,1009,7,2032,-35,-17,-10,0,0.00341796875,0.9921875,-0.01708984375,-0.5182926829268293,-0.30487804878048785,0.0,0.017,-0.003,0.993,0.02,0.04,0.0,0.21,-0.99,0.17,1100,1100,1500,1500,0.02,0,2,0,1
60,76527862,1008,7,2033,-36,-16,-10,-1,0.00341796875,0.99267578125,-0.017578125,-0.48780487804878053,-0.30487804878048785,-0.030487804878048783,0.017,-0.003,0.992,0.03,0.06,-0.01,0.21,-0.99,0.17,1100,1100,1500,1500,0.02,0,2,0,1
61,76528870,1008,6,2033,-37,-15,-9,0,0.0029296875,0.99267578125,-0.01806640625,-0.4573170731707317,-0.27439024390243905,0.0,0.017,-0.003,0.992,0.02,0.06,-0.01,0.21,-0.99,0.17,1100,1100,1500,1500,0.03,0,2,0,1
62,76529879,1009,3,2031,-37,-14,-7,0,0.00146484375,0.99169921875,-0.01806640625,-0.426829268292683,-0.2134146341463415,0.0,0.017,-0.002,0.992,0.02,0.05,0.0,0.21,-0.99,0.17,1100,1100,1500,1500,0.04,0,2,0,1
63,76530887,1008,4,2032,-36,-12,-7,1,0.001953125,0.9921875,-0.017578125,-0.3658536585365854,-0.2134146341463415,0.030487804878048783,0.017,-0.002,0.992,0.0,0.02,0.02,0.21,-0.99,0.17,1100,1100,1500,1500,0.05,0,2,0,1
64,76531896,1009,6,2035,-36,-12,-8,1,0.0029296875,0.99365234375,-0.017578125,-0.3658536585365854,-0.24390243902439027,0.030487804878048783,0.017,-0.002,0.992,0.0,0.0,0.02,0.21,-0.99,0.17,1100,1100,1500,1500,0.05,0,2,0,1
65,76532904,1008,7,2036,-37,-13,-10,1,0.00341796875,0.994140625,-0.01806640625,-0.39634146341463417,-0.30487804878048785,0.030487804878048783,0.017,-0.002,0.993,0.0,0.0,0.0,0.21,-0.99,0.17,1100,1100,1500,1500,0.05,0,2,0,1
66,76533912,1008,8,2035,-38,-13,-10,0,0.00390625,0.99365234375,-0.0185546875,-0.39634146341463417,-0.30487804878048785,0.0,0.017,-0.003,0.993,0.0,0.0,-0.01,0.21,-0.99,0.17,1100,1100,1500,1500,0.04,0,2,0,1
67,76534921,1009,7,2034,-38,-13,-9,-1,0.00341796875,0.9931640625,-0.0185546875,-0.39634146341463417,-0.27439024390243905,-0.030487804878048783,0.017,-0.003,0.993,0.01,0.0,-0.01,0.21,-0.99,0.17,1100,1100,1500,1500,0.05,0,2,0,1
68,76535929,1008,5,2033,-36,-14,-9,-1,0.00244140625,0.99267578125,-0.017578125,-0.426829268292683,-0.27439024390243905,-0.030487804878048783,0.017,-0.003,0.993,0.02,0.01,0.0,0.21,-0.99,0.17,1100,1100,1500,1500,0.05,0,2,0,1
69,76536937,1008,6,2033,-35,-14,-9,-1,0.0029296875,0.99267578125,-0.01708984375,-0.426829268292683,-0.27439024390243905,-0.030487804878048783,0.017,-0.003,0.992,0.02,0.01,0.0,0.21,-0.99,0.17,1100,1100,1500,1500,0.04,0,2,0,1
70,76537946,1009,7,2033,-37,-13,-8,0,0.00341796875,0.99267578125,-0.01806640625,-0.39634146341463417,-0.24390243902439027,0.0,0.017,-0.003,0.992,0.02,0.01,0.0,0.21,-0.99,0.17,1100,1100,1500,1500,0.04,0,2,0,1
71,76538954,1008,7,2033,-38,-15,-7,0,0.00341796875,0.99267578125,-0.0185546875,-0.4573170731707317,-0.2134146341463415,0.0,0.017,-0.003,0.992,0.01,0.03,0.01,0.21,-0.99,0.17,1100,1100,1500,1500,0.05,0,2,0,1
72,76539962,1008,7,2031,-36,-15,-8,1,0.00341796875,0.99169921875,-0.017578125,-0.4573170731707317,-0.24390243902439027,0.030487804878048783,0.017,-0.003,0.992,0.0,0.04,0.01,0.2,-0.99,0.17,1100,1100,1500,1500,0.04,0,2,0,1
73,76540971,1009,7,2031,-37,-13,-9,1,0.00341796875,0.99169921875,-0.01806640625,-0.39634146341463417,-0.27439024390243905,0.030487804878048783,0.017,-0.003,0.992,0.0,0.02,0.01,0.2,-0.99,0.17,1100,1100,1500,1500,0.04,0,2,0,1
74,76541979,1008,7,2032,-39,-12,-8,1,0.00341796875,0.9921875,-0.01904296875,-0.3658536585365854,-0.24390243902439027,0.030487804878048783,0.018,-0.003,0.992,0.0,0.0,0.01,0.2,-0.99,0.17,1100,1100,1500,1500,0.05,0,2,0,1
75,76542988,1009,7,2034,-41,-12,-7,1,0.00341796875,0.9931640625,-0.02001953125,-0.3658536585365854,-0.2134146341463415,0.030487804878048783,0.018,-0.003,0.992,-0.01,0.0,0.02,0.2,-0.99,0.17,1100,1100,1500,1500,0.07,0,2,0,1
76,76543996,1008,8,2035,-39,-12,-8,1,0.00390625,0.99365234375,-0.01904296875,-0.3658536585365854,-0.24390243902439027,0.030487804878048783,0.018,-0.003,0.992,-0.01,-0.01,0.02,0.2,-0.99,0.17,1100,1100,1500,1500,0.07,0,2,0,1
77,76545004,1008,8,2034,-36,-12,-9,1,0.00390625,0.9931640625,-0.017578125,-0.3658536585365854,-0.27439024390243905,0.030487804878048783,0.018,-0.003,0.992,-0.01,-0.01,0.01,0.2,-0.99,0.17,1100,1100,1500,1500,0.06,0,2,0,1
78,76546013,1009,8,2032,-36,-12,-10,1,0.00390625,0.9921875,-0.017578125,-0.3658536585365854,-0.30487804878048785,0.030487804878048783,0.018,-0.003,0.992,-0.01,-0.02,0.0,0.2,-0.99,0.17,1100,1100,1500,1500,0.05,0,2,0,1
79,76547021,1008,7,2031,-36,-12,-10,1,0.00341796875,0.99169921875,-0.017578125,-0.3658536585365854,-0.30487804878048785,0.030487804878048783,0.018,-0.003,0.992,-0.01,-0.02,-0.01,0.21,-0.99,0.17,1100,1100,1500,1500,0.05,0,2,0,1
80,76548030,1009,7,2032,-36,-12,-10,1,0.00341796875,0.9921875,-0.017578125,-0.3658536585365854,-0.30487804878048785,0.030487804878048783,0.018,-0.003,0.992,-0.01,-0.02,-0.02,0.21,-0.99,0.17,1100,1100,1500,1500,0.04,0,2,0,1
81,76549038,1008,8,2033,-36,-14,-9,1,0.00390625,0.99267578125,-0.017578125,-0.426829268292683,-0.27439024390243905,0.030487804878048783,0.017,-0.003,0.992,-0.01,0.0,-0.01,0.21,-0.99,0.17,1100,1100,1500,1500,0.04,0,2,0,1
82,76550046,1008,8,2034,-37,-15,-8,1,0.00390625,0.9931640625,-0.01806640625,-0.4573170731707317,-0.24390243902439027,0.030487804878048783,0.017,-0.003,0.992,-0.01,0.01,0.0,0.21,-0.99,0.17,1100,1100,1500,1500,0.04,0,2,0,1
83,76551055,1009,7,2035,-38,-15,-8,0,0.00341796875,0.99365234375,-0.0185546875,-0.4573170731707317,-0.24390243902439027,0.0,0.018,-0.003,0.992,0.0,0.03,0.0,0.21,-0.99,0.17,1100,1100,1500,1500,0.04,0,2,0,1
84,76552063,1008,7,2037,-38,-15,-9,0,0.00341796875,0.99462890625,-0.0185546875,-0.4573170731707317,-0.27439024390243905,0.0,0.018,-0.003,0.993,0.0,0.04,0.0,0.21,-0.99,0.17,1100,1100,1500,1500,0.05,0,2,0,1
85,76553071,1008,7,2036,-37,-14,-9,1,0.00341796875,0.994140625,-0.01806640625,-0.426829268292683,-0.27439024390243905,0.030487804878048783,0.018,-0.003,0.993,0.0,0.03,0.0,0.21,-0.99,0.17,1100,1100,1500,1500,0.05,0,2,0,1
86,76554080,1009,7,2036,-39,-13,-9,1,0.00341796875,0.994140625,-0.01904296875,-0.39634146341463417,-0.27439024390243905,0.030487804878048783,0.018,-0.003,0.993,-0.01,0.02,0.0,0.21,-0.99,0.17,1100,1100,1500,1500,0.06,0,2,0,1
87,76555088,1008,8,2036,-40,-12,-9,1,0.00390625,0.994140625,-0.01953125,-0.3658536585365854,-0.27439024390243905,0.030487804878048783,0.018,-0.003,0.993,-0.01,0.0,0.0,0.21,-0.99,0.17,1100,1100,1500,1500,0.07,0,2,0,1
88,76556096,1008,9,2036,-39,-12,-8,0,0.00439453125,0.994140625,-0.01904296875,-0.3658536585365854,-0.24390243902439027,0.0,0.018,-0.003,0.993,0.0,0.0,0.0,0.21,-0.99,0.17,1100,1100,1500,1500,0.07,0,2,0,1
89,76557105,1009,10,2034,-37,-12,-9,1,0.0048828125,0.9931640625,-0.01806640625,-0.3658536585365854,-0.27439024390243905,0.030487804878048783,0.018,-0.003,0.993,0.0,-0.01,0.0,0.21,-0.99,0.17,1100,1100,1500,1500,0.07,0,2,0,1
90,76558113,1008,9,2035,-38,-11,-10,2,0.00439453125,0.99365234375,-0.0185546875,-0.3353658536585366,-0.30487804878048785,0.06097560975609757,0.018,-0.003,0.993,-0.02,-0.02,-0.01,0.21,-0.99,0.17,1100,1100,1500,1500,0.07,0,2,0,1
91,76559122,1009,8,2036,-38,-11,-10,2,0.00390625,0.994140625,-0.0185546875,-0.3353658536585366,-0.30487804878048785,0.06097560975609757,0.018,-0.003,0.993,-0.03,-0.03,-0.02,0.21,-0.99,0.17,1100,1100,1500,1500,0.07,0,2,0,1
92,76560130,1008,7,2036,-37,-11,-8,2,0.00341796875,0.994140625,-0.01806640625,-0.3353658536585366,-0.24390243902439027,0.06097560975609757,0.018,-0.003,0.993,-0.03,-0.04,0.0,0.21,-0.99,0.17,1100,1100,1500,1500,0.07,0,2,0,1
93,76561138,1008,8,2036,-37,-12,-7,2,0.00390625,0.994140625,-0.01806640625,-0.3658536585365854,-0.2134146341463415,0.06097560975609757,0.018,-0.003,0.993,-0.04,-0.03,0.01,0.21,-0.99,0.17,1100,1100,1500,1500,0.06,0,2,0,1
94,76562147,1009,9,2037,-39,-14,-7,0,0.00439453125,0.99462890625,-0.01904296875,-0.426829268292683,-0.2134146341463415,0.0,0.018,-0.003,0.993,-0.02,-0.01,0.02,0.21,-0.99,0.17,1100,1100,1500,1500,0.07,0,2,0,1
95,76563155,1008,10,2035,-39,-16,-8,0,0.0048828125,0.99365234375,-0.01904296875,-0.48780487804878053,-0.24390243902439027,0.0,0.018,-0.004,0.993,-0.01,0.02,0.02,0.21,-0.99,0.17,1100,1100,1500,1500,0.08,0,2,0,1
96,76564164,1009,10,2032,-38,-17,-9,0,0.0048828125,0.9921875,-0.0185546875,-0.5182926829268293,-0.27439024390243905,0.0,0.018,-0.004,0.993,0.0,0.05,0.01,0.21,-0.99,0.17,1100,1100,1500,1500,0.08,0,2,0,1
97,76565172,1008,8,2032,-38,-16,-9,1,0.00390625,0.9921875,-0.0185546875,-0.48780487804878053,-0.27439024390243905,0.030487804878048783,0.018,-0.004,0.993,0.0,0.06,0.0,0.21,-0.99,0.17,1100,1100,1500,1500,0.08,0,2,0,1
98,76566180,1008,7,2033,-37,-15,-9,2,0.00341796875,0.99267578125,-0.01806640625,-0.4573170731707317,-0.27439024390243905,0.06097560975609757,0.018,-0.004,0.993,-0.02,0.06,0.0,0.21,-0.99,0.17,1100,1100,1500,1500,0.07,0,2,0,1
99,76567189,1009,7,2033,-35,-14,-8,1,0.00341796875,0.99267578125,-0.01708984375,-0.426829268292683,-0.24390243902439027,0.030487804878048783,0.018,-0.003,0.993,-0.02,0.05,0.0,0.21,-0.99,0.17,1100,1100,1500,1500,0.06,0,2,0,1
100,76568197,1008,9,2033,-33,-12,-8,0,0.00439453125,0.99267578125,-0.01611328125,-0.3658536585365854,-0.24390243902439027,0.0,0.017,-0.004,0.993,0.0,0.02,0.01,0.21,-0.99,0.17,1100,1100,1500,1500,0.04,0,2,0,1
101,76569205,1008,9,2032,-32,-12,-9,1,0.00439453125,0.9921875,-0.015625,-0.3658536585365854,-0.27439024390243905,0.030487804878048783,0.017,-0.004,0.992,-0.01,0.0,0.0,0.21,-0.99,0.17,1100,1100,1500,1500,0.03,0,2,0,1
102,76570214,1009,9,2033,-31,-14,-9,2,0.00439453125,0.99267578125,-0.01513671875,-0.426829268292683,-0.27439024390243905,0.06097560975609757,0.017,-0.004,0.992,-0.02,0.01,0.0,0.21,-0.99,0.17,1100,1100,1500,1500,0.02,0,2,0,1
103,76571222,1008,7,2034,-30,-14,-10,2,0.00341796875,0.9931640625,-0.0146484375,-0.426829268292683,-0.30487804878048785,0.06097560975609757,0.016,-0.004,0.992,-0.03,0.02,-0.01,0.21,-0.99,0.17,1100,1100,1500,1500,0.03,0,2,0,1
104,76572231,1009,5,2035,-31,-13,-9,0,0.00244140625,0.99365234375,-0.01513671875,-0.39634146341463417,-0.27439024390243905,0.0,0.016,-0.003,0.993,-0.01,0.01,-0.01,0.21,-0.99,0.17,1100,1100,1500,1500,0.04,0,2,0,1
105,76573239,1008,4,2036,-31,-12,-8,0,0.001953125,0.994140625,-0.01513671875,-0.3658536585365854,-0.24390243902439027,0.0,0.016,-0.003,0.993,0.0,0.0,0.0,0.21,-0.99,0.17,1100,1100,1500,1500,0.05,0,2,0,1
106,76574247,1008,5,2036,-31,-12,-8,0,0.00244140625,0.994140625,-0.01513671875,-0.3658536585365854,-0.24390243902439027,0.0,0.016,-0.003,0.993,0.0,0.0,0.0,0.21,-0.99,0.17,1100,1100,1500,1500,0.06,0,2,0,1
107,76575256,1009,7,2035,-31,-12,-8,0,0.00341796875,0.99365234375,-0.01513671875,-0.3658536585365854,-0.24390243902439027,0.0,0.015,-0.003,0.993,0.0,-0.01,0.01,0.21,-0.99,0.17,1100,1100,1500,1500,0.07,0,2,0,1
108,76576264,1008,7,2034,-33,-13,-8,0,0.00341796875,0.9931640625,-0.01611328125,-0.39634146341463417,-0.24390243902439027,0.0,0.015,-0.003,0.993,0.0,0.0,0.01,0.21,-0.99,0.17,1100,1100,1500,1500,0.07,0,2,0,1
109,76577272,1008,7,2033,-33,-13,-8,1,0.00341796875,0.99267578125,-0.01611328125,-0.39634146341463417,-0.24390243902439027,0.030487804878048783,0.016,-0.003,0.993,0.0,0.0,0.01,0.21,-0.99,0.17,1100,1100,1500,1500,0.07,0,2,0,1
110,76578281,1009,7,2032,-33,-12,-9,1,0.00341796875,0.9921875,-0.01611328125,-0.3658536585365854,-0.27439024390243905,0.030487804878048783,0.016,-0.003,0.993,0.0,-0.01,0.0,0.21,-0.99,0.17,1100,1100,1500,1500,0.07,0,2,0,1
111,76579289,1008,7,2032,-33,-12,-9,0,0.00341796875,0.9921875,-0.01611328125,-0.3658536585365854,-0.27439024390243905,0.0,0.016,-0.003,0.992,0.0,-0.01,0.0,0.21,-0.99,0.17,1100,1100,1500,1500,0.07,0,2,0,1
112,76580298,1009,9,2033,-34,-13,-9,0,0.00439453125,0.99267578125,-0.0166015625,-0.39634146341463417,-0.27439024390243905,0.0,0.016,-0.003,0.992,0.0,-0.01,0.0,0.21,-0.99,0.17,1100,1100,1500,1500,0.06,0,2,0,1
113,76581306,1008,11,2033,-34,-14,-9,0,0.00537109375,0.99267578125,-0.0166015625,-0.426829268292683,-0.27439024390243905,0.0,0.016,-0.003,0.992,0.0,0.0,0.0,0.21,-0.99,0.17,1100,1100,1500,1500,0.05,0,2,0,1
114,76582314,1008,10,2032,-35,-13,-9,-1,0.0048828125,0.9921875,-0.01708984375,-0.39634146341463417,-0.27439024390243905,-0.030487804878048783,0.016,-0.003,0.992,0.01,0.0,0.0,0.21,-0.99,0.17,1100,1100,1500,1500,0.05,0,2,0,1
115,76583323,1009,9,2032,-36,-11,-10,-1,0.00439453125,0.9921875,-0.017578125,-0.3353658536585366,-0.30487804878048785,-0.030487804878048783,0.016,-0.004,0.992,0.02,-0.01,-0.01,0.21,-0.99,0.17,1100,1100,1500,1500,0.04,0,2,0,1
116,76584331,1008,9,2033,-34,-9,-10,-1,0.00439453125,0.99267578125,-0.0166015625,-0.27439024390243905,-0.30487804878048785,-0.030487804878048783,0.016,-0.004,0.992,0.03,-0.05,-0.02,0.21,-0.99,0.17,1100,1100,1500,1500,0.04,0,2,0,1
117,76585339,1008,8,2034,-33,-9,-9,0,0.00390625,0.9931640625,-0.01611328125,-0.27439024390243905,-0.27439024390243905,0.0,0.016,-0.004,0.992,0.02,-0.07,-0.01,0.21,-0.99,0.17,1100,1100,1500,1500,0.04,0,2,0,1
118,76586348,1009,8,2034,-34,-12,-8,0,0.00390625,0.9931640625,-0.0166015625,-0.3658536585365854,-0.24390243902439027,0.0,0.016,-0.004,0.992,0.02,-0.05,0.0,0.21,-0.99,0.17,1100,1100,1500,1500,0.04,0,2,0,1
119,76587356,1008,9,2034,-34,-14,-8,-1,0.00439453125,0.9931640625,-0.0166015625,-0.426829268292683,-0.24390243902439027,-0.030487804878048783,0.016,-0.004,0.992,0.02,-0.02,0.0,0.21,-0.99,0.17,1100,1100,1500,1500,0.04,0,2,0,1
120,76588365,1009,8,2035,-35,-14,-8,-1,0.00390625,0.99365234375,-0.01708984375,-0.426829268292683,-0.24390243902439027,-0.030487804878048783,0.016,-0.004,0.992,0.03,0.0,0.01,0.21,-0.99,0.17,1100,1100,1500,1500,0.04,0,2,0,1
121,76589373,1008,8,2034,-36,-14,-9,-1,0.00390625,0.9931640625,-0.017578125,-0.426829268292683,-0.27439024390243905,-0.030487804878048783,0.016,-0.004,0.993,0.03,0.0,0.0,0.21,-0.99,0.17,1100,1100,1500,1500,0.03,0,2,0,1
122,76590385,1012,8,2032,-35,-15,-10,-1,0.00390625,0.9921875,-0.01708984375,-0.4573170731707317,-0.30487804878048785,-0.030487804878048783,0.016,-0.004,0.992,0.03,0.02,-0.01,0.21,-0.99,0.17,1100,1100,1500,1500,0.03,0,2,0,1
123,76591390,1005,8,2032,-33,-15,-10,-1,0.00390625,0.9921875,-0.01611328125,-0.4573170731707317,-0.30487804878048785,-0.030487804878048783,0.016,-0.004,0.992,0.03,0.03,-0.01,0.21,-0.99,0.17,1100,1100,1500,1500,0.03,0,2,0,1
124,76592398,1008,8,2032,-33,-13,-10,0,0.00390625,0.9921875,-0.01611328125,-0.39634146341463417,-0.30487804878048785,0.0,0.016,-0.003,0.992,0.03,0.02,-0.02,0.21,-0.99,0.17,1100,1100,1500,1500,0.04,0,2,0,1
125,76593406,1008,7,2032,-34,-11,-10,0,0.00341796875,0.9921875,-0.0166015625,-0.3353658536585366,-0.30487804878048785,0.0,0.016,-0.003,0.992,0.02,0.0,-0.03,0.21,-0.99,0.17,1100,1100,1500,1500,0.03,0,2,0,1
126,76594415,1009,5,2032,-35,-12,-10,0,0.00244140625,0.9921875,-0.01708984375,-0.3658536585365854,-0.30487804878048785,0.0,0.016,-0.003,0.992,0.02,-0.01,-0.03,0.21,-0.99,0.17,1100,1100,1500,1500,0.03,0,2,0,1
127,76595423,1008,5,2033,-35,-15,-9,-1,0.00244140625,0.99267578125,-0.01708984375,-0.4573170731707317,-0.27439024390243905,-0.030487804878048783,0.016,-0.003,0.992,0.02,0.01,-0.02,0.21,-0.99,0.17,1100,1100,1500,1500,0.02,0,2,0,1
128,76596432,1009,7,2034,-35,-15,-9,-1,0.00341796875,0.9931640625,-0.01708984375,-0.4573170731707317,-0.27439024390243905,-0.030487804878048783,0.016,-0.003,0.992,0.03,0.03,-0.01,0.21,-0.99,0.17,1100,1100,1500,1500,0.02,0,2,0,1
129,76597440,1008,7,2035,-35,-14,-9,-1,0.00341796875,0.99365234375,-0.01708984375,-0.426829268292683,-0.27439024390243905,-0.030487804878048783,0.016,-0.003,0.992,0.03,0.03,-0.01,0.21,-0.99,0.17,1100,1100,1500,1500,0.02,0,2,0,1
130,76598448,1008,5,2034,-36,-12,-10,0,0.00244140625,0.9931640625,-0.017578125,-0.3658536585365854,-0.30487804878048785,0.0,0.016,-0.003,0.992,0.02,0.01,-0.02,0.21,-0.99,0.17,1100,1100,1500,1500,0.02,0,2,0,1
131,76599457,1009,3,2032,-36,-12,-10,0,0.00146484375,0.9921875,-0.017578125,-0.3658536585365854,-0.30487804878048785,0.0,0.017,-0.003,0.992,0.02,0.0,-0.02,0.21,-0.99,0.17,1100,1100,1500,1500,0.03,0,2,0,1
132,76600465,1008,3,2033,-36,-14,-8,0,0.00146484375,0.99267578125,-0.017578125,-0.426829268292683,-0.24390243902439027,0.0,0.017,-0.002,0.992,0.01,0.0,-0.01,0.21,-0.99,0.17,1100,1100,1500,1500,0.05,0,2,0,1
133,76601473,1008,6,2034,-36,-15,-7,-1,0.0029296875,0.9931640625,-0.017578125,-0.4573170731707317,-0.2134146341463415,-0.030487804878048783,0.017,-0.002,0.992,0.02,0.02,0.01,0.21,-0.99,0.17,1100,1100,1500,1500,0.04,0,2,0,1
134,76602482,1009,8,2033,-35,-14,-7,-2,0.00390625,0.99267578125,-0.01708984375,-0.426829268292683,-0.2134146341463415,-0.06097560975609757,0.017,-0.002,0.992,0.04,0.02,0.02,0.2,-0.99,0.17,1100,1100,1500,1500,0.03,0,2,0,1
135,76603490,1008,9,2032,-35,-12,-7,-2,0.00439453125,0.9921875,-0.01708984375,-0.3658536585365854,-0.2134146341463415,-0.06097560975609757,0.017,-0.003,0.992,0.05,0.0,0.03,0.2,-0.99,0.17,1100,1100,1500,1500,0.02,0,2,0,1
136,76604499,1009,9,2031,-36,-13,-8,-1,0.00439453125,0.99169921875,-0.017578125,-0.39634146341463417,-0.24390243902439027,-0.030487804878048783,0.017,-0.003,0.992,0.04,0.0,0.03,0.2,-0.99,0.17,1100,1100,1500,1500,0.01,0,2,0,1
137,76605507,1008,7,2031,-37,-14,-8,-1,0.00341796875,0.99169921875,-0.01806640625,-0.426829268292683,-0.24390243902439027,-0.030487804878048783,0.017,-0.003,0.992,0.04,0.01,0.02,0.2,-0.99,0.17,1100,1100,1500,1500,0.01,0,2,0,1
138,76606515,1008,7,2032,-36,-14,-8,0,0.00341796875,0.9921875,-0.017578125,-0.426829268292683,-0.24390243902439027,0.0,0.017,-0.003,0.992,0.03,0.02,0.02,0.2,-0.99,0.17,1100,1100,1500,1500,0.01,0,2,0,1
139,76607524,1009,8,2032,-35,-14,-7,1,0.00390625,0.9921875,-0.01708984375,-0.426829268292683,-0.2134146341463415,0.030487804878048783,0.017,-0.003,0.992,0.01,0.02,0.03,0.2,-0.99,0.17,1100,1100,1500,1500,0.01,0,2,0,1
140,76608532,1008,9,2032,-35,-14,-7,2,0.00439453125,0.9921875,-0.01708984375,-0.426829268292683,-0.2134146341463415,0.06097560975609757,0.017,-0.003,0.992,0.0,0.02,0.04,0.2,-0.99,0.17,1100,1100,1500,1500,0.0,0,2,0,1
141,76609540,1008,9,2033,-36,-14,-7,2,0.00439453125,0.99267578125,-0.017578125,-0.426829268292683,-0.2134146341463415,0.06097560975609757,0.017,-0.003,0.992,-0.01,0.02,0.04,0.2,-0.99,0.17,1100,1100,1500,1500,0.01,0,2,0,1
142,76610549,1009,8,2034,-37,-12,-9,2,0.00390625,0.9931640625,-0.01806640625,-0.3658536585365854,-0.27439024390243905,0.06097560975609757,0.017,-0.003,0.992,-0.02,0.0,0.02,0.2,-0.99,0.17,1100,1100,1500,1500,0.01,0,2,0,1
143,76611557,1008,8,2034,-37,-13,-9,1,0.00390625,0.9931640625,-0.01806640625,-0.39634146341463417,-0.27439024390243905,0.030487804878048783,0.017,-0.003,0.992,-0.02,0.0,0.01,0.2,-0.99,0.17,1100,1100,1500,1500,0.02,0,2,0,1
144,76612566,1009,9,2035,-38,-16,-9,0,0.00439453125,0.99365234375,-0.0185546875,-0.48780487804878053,-0.27439024390243905,0.0,0.017,-0.003,0.992,-0.01,0.03,0.0,0.2,-0.99,0.17,1100,1100,1500,1500,0.03,0,2,0,1
145,76613574,1008,9,2035,-38,-15,-9,-1,0.00439453125,0.99365234375,-0.0185546875,-0.4573170731707317,-0.27439024390243905,-0.030487804878048783,0.017,-0.003,0.992,0.0,0.04,0.0,0.2,-0.99,0.17,1100,1100,1500,1500,0.04,0,2,0,1
146,76614582,1008,8,2033,-38,-12,-9,0,0.00390625,0.99267578125,-0.0185546875,-0.3658536585365854,-0.27439024390243905,0.0,0.017,-0.003,0.992,0.0,0.02,0.0,0.2,-0.99,0.17,1100,1100,1500,1500,0.04,0,2,0,1
147,76615591,1009,6,2032,-36,-10,-9,0,0.0029296875,0.9921875,-0.017578125,-0.30487804878048785,-0.27439024390243905,0.0,0.017,-0.003,0.992,0.0,-0.01,0.0,0.2,-0.99,0.17,1100,1100,1500,1500,0.04,0,2,0,1
148,76616599,1008,4,2033,-33,-11,-9,0,0.001953125,0.99267578125,-0.01611328125,-0.3353658536585366,-0.27439024390243905,0.0,0.017,-0.003,0.992,0.01,-0.03,0.0,0.2,-0.99,0.17,1100,1100,1500,1500,0.02,0,2,0,1
149,76617607,1008,3,2035,-31,-11,-9,0,0.00146484375,0.99365234375,-0.01513671875,-0.3353658536585366,-0.27439024390243905,0.0,0.017,-0.003,0.992,0.01,-0.04,0.0,0.2,-0.99,0.17,1100,1100,1500,1500,0.02,0,2,0,1
150,76618616,1009,3,2035,-32,-10,-9,-1,0.00146484375,0.99365234375,-0.015625,-0.30487804878048785,-0.27439024390243905,-0.030487804878048783,0.016,-0.002,0.993,0.02,-0.05,0.0,0.2,-0.99,0.17,1100,1100,1500,1500,0.04,0,2,0,1
151,76619624,1008,5,2034,-34,-9,-9,0,0.00244140625,0.9931640625,-0.0166015625,-0.27439024390243905,-0.27439024390243905,0.0,0.016,-0.002,0.993,0.01,-0.07,0.0,0.2,-0.99,0.17,1100,1100,1500,1500,0.04,0,2,0,1
152,76620632,1008,7,2033,-35,-11,-10,2,0.00341796875,0.99267578125,-0.01708984375,-0.3353658536585366,-0.30487804878048785,0.06097560975609757,0.016,-0.002,0.992,0.0,-0.07,-0.01,0.2,-0.99,0.17,1100,1100,1500,1500,0.04,0,2,0,1
153,76621640,1008,8,2034,-37,-13,-9,2,0.00390625,0.9931640625,-0.01806640625,-0.39634146341463417,-0.27439024390243905,0.06097560975609757,0.017,-0.003,0.993,-0.01,-0.04,-0.01,0.2,-0.99,0.17,1100,1100,1500,1500,0.03,0,2,0,1
154,76622649,1009,8,2034,-36,-13,-8,2,0.00390625,0.9931640625,-0.017578125,-0.39634146341463417,-0.24390243902439027,0.06097560975609757,0.017,-0.003,0.993,-0.02,-0.03,0.0,0.2,-0.99,0.17,1100,1100,1500,1500,0.02,0,2,0,1
155,76623657,1008,8,2033,-34,-12,-8,1,0.00390625,0.99267578125,-0.0166015625,-0.3658536585365854,-0.24390243902439027,0.030487804878048783,0.017,-0.003,0.992,-0.02,-0.02,0.0,0.2,-0.99,0.17,1100,1100,1500,1500,0.01,0,2,0,1
156,76624665,1008,8,2033,-33,-13,-10,0,0.00390625,0.99267578125,-0.01611328125,-0.39634146341463417,-0.30487804878048785,0.0,0.016,-0.003,0.992,-0.01,-0.01,0.0,0.2,-0.99,0.17,1100,1100,1500,1500,0.02,0,2,0,1
157,76625674,1009,8,2033,-33,-14,-10,0,0.00390625,0.99267578125,-0.01611328125,-0.426829268292683,-0.30487804878048785,0.0,0.016,-0.003,0.992,0.0,0.0,-0.01,0.2,-0.99,0.17,1100,1100,1500,1500,0.02,0,2,0,1
158,76626682,1008,8,2033,-31,-14,-10,0,0.00390625,0.99267578125,-0.01513671875,-0.426829268292683,-0.30487804878048785,0.0,0.016,-0.003,0.992,0.0,0.0,-0.02,0.2,-0.99,0.17,1100,1100,1500,1500,0.03,0,2,0,1
159,76627690,1008,7,2033,-30,-14,-10,1,0.00341796875,0.99267578125,-0.0146484375,-0.426829268292683,-0.30487804878048785,0.030487804878048783,0.016,-0.003,0.992,0.0,0.01,-0.02,0.2,-0.99,0.17,1100,1100,1500,1500,0.05,0,2,0,1
160,76628699,1009,7,2034,-31,-14,-10,3,0.00341796875,0.9931640625,-0.01513671875,-0.426829268292683,-0.30487804878048785,0.09146341463414635,0.016,-0.003,0.992,-0.03,0.02,-0.03,0.2,-0.99,0.17,1100,1100,1500,1500,0.06,0,2,0,1
161,76629707,1008,7,2034,-33,-14,-10,3,0.00341796875,0.9931640625,-0.01611328125,-0.426829268292683,-0.30487804878048785,0.09146341463414635,0.016,-0.003,0.992,-0.04,0.02,-0.03,0.2,-0.99,0.17,1100,1100,1500,1500,0.06,0,2,0,1
162,76630716,1009,8,2033,-34,-14,-10,1,0.00390625,0.99267578125,-0.0166015625,-0.426829268292683,-0.30487804878048785,0.030487804878048783,0.016,-0.003,0.992,-0.03,0.02,-0.03,0.2,-0.99,0.17,1100,1100,1500,1500,0.06,0,2,0,1
163,76631724,1008,8,2033,-33,-14,-10,-1,0.00390625,0.99267578125,-0.01611328125,-0.426829268292683,-0.30487804878048785,-0.030487804878048783,0.016,-0.003,0.992,-0.01,0.02,-0.03,0.2,-0.99,0.17,1100,1100,1500,1500,0.06,0,2,0,1
164,76632732,1008,8,2033,-34,-14,-9,-2,0.00390625,0.99267578125,-0.0166015625,-0.426829268292683,-0.27439024390243905,-0.06097560975609757,0.016,-0.003,0.992,0.01,0.03,-0.02,0.2,-0.99,0.17,1100,1100,1500,1500,0.05,0,2,0,1
165,76633741,1009,8,2035,-34,-13,-8,-2,0.00390625,0.99365234375,-0.0166015625,-0.39634146341463417,-0.24390243902439027,-0.06097560975609757,0.016,-0.003,0.992,0.03,0.02,-0.01,0.2,-0.99,0.17,1100,1100,1500,1500,0.05,0,2,0,1
166,76634749,1008,7,2035,-33,-12,-7,-1,0.00341796875,0.99365234375,-0.01611328125,-0.3658536585365854,-0.2134146341463415,-0.030487804878048783,0.016,-0.003,0.993,0.03,0.0,0.01,0.2,-0.99,0.17,1100,1100,1500,1500,0.05,0,2,0,1
167,76635757,1008,7,2035,-33,-11,-7,0,0.00341796875,0.99365234375,-0.01611328125,-0.3353658536585366,-0.2134146341463415,0.0,0.016,-0.003,0.993,0.02,-0.01,0.02,0.2,-0.99,0.17,1100,1100,1500,1500,0.05,0,2,0,1
168,76636766,1009,7,2035,-34,-12,-9,2,0.00341796875,0.99365234375,-0.0166015625,-0.3658536585365854,-0.27439024390243905,0.06097560975609757,0.016,-0.003,0.993,0.0,-0.02,0.01,0.2,-0.99,0.17,1100,1100,1500,1500,0.05,0,2,0,1
169,76637774,1008,6,2034,-36,-13,-10,1,0.0029296875,0.9931640625,-0.017578125,-0.39634146341463417,-0.30487804878048785,0.030487804878048783,0.016,-0.003,0.993,0.0,-0.01,0.0,0.2,-0.99,0.17,1100,1100,1500,1500,0.04,0,2,0,1
170,76638783,1009,8,2034,-37,-13,-10,0,0.00390625,0.9931640625,-0.01806640625,-0.39634146341463417,-0.30487804878048785,0.0,0.016,-0.003,0.993,0.0,0.0,-0.01,0.2,-0.99,0.17,1100,1100,1500,1500,0.02,0,2,0,1
171,76639791,1008,10,2035,-38,-14,-11,0,0.0048828125,0.99365234375,-0.0185546875,-0.426829268292683,-0.3353658536585366,0.0,0.017,-0.003,0.993,0.0,0.0,-0.03,0.2,-0.99,0.17,1100,1100,1500,1500,0.01,0,2,0,1
172,76640799,1008,10,2035,-37,-16,-10,1,0.0048828125,0.99365234375,-0.01806640625,-0.48780487804878053,-0.30487804878048785,0.030487804878048783,0.017,-0.003,0.993,0.0,0.03,-0.03,0.2,-0.99,0.17,1100,1100,1500,1500,0.01,0,2,0,1
173,76641808,1009,8,2036,-36,-16,-9,1,0.00390625,0.994140625,-0.017578125,-0.48780487804878053,-0.27439024390243905,0.030487804878048783,0.017,-0.003,0.993,0.0,0.05,-0.02,0.2,-0.99,0.17,1100,1100,1500,1500,0.01,0,2,0,1
174,76642816,1008,7,2037,-35,-15,-9,2,0.00341796875,0.99462890625,-0.01708984375,-0.4573170731707317,-0.27439024390243905,0.06097560975609757,0.017,-0.003,0.993,-0.02,0.05,-0.01,0.2,-0.99,0.17,1100,1100,1500,1500,0.01,0,2,0,1
175,76643824,1008,6,2034,-34,-14,-9,3,0.0029296875,0.9931640625,-0.0166015625,-0.426829268292683,-0.27439024390243905,0.09146341463414635,0.017,-0.003,0.993,-0.04,0.04,-0.01,0.2,-0.99,0.17,1100,1100,1500,1500,0.0,0,2,0,1
176,76644833,1009,7,2033,-34,-12,-7,3,0.00341796875,0.99267578125,-0.0166015625,-0.3658536585365854,-0.2134146341463415,0.09146341463414635,0.017,-0.003,0.993,-0.05,0.02,0.0,0.2,-0.99,0.17,1100,1100,1500,1500,0.01,0,2,0,1
177,76645841,1008,7,2034,-34,-13,-8,2,0.00341796875,0.9931640625,-0.0166015625,-0.39634146341463417,-0.24390243902439027,0.06097560975609757,0.016,-0.003,0.993,-0.05,0.01,0.01,0.2,-0.99,0.17,1100,1100,1500,1500,0.01,0,2,0,1
178,76646849,1008,8,2034,-33,-14,-8,1,0.00390625,0.9931640625,-0.01611328125,-0.426829268292683,-0.24390243902439027,0.030487804878048783,0.016,-0.003,0.993,-0.04,0.02,0.01,0.2,-0.99,0.17,1100,1100,1500,1500,0.02,0,2,0,1
179,76647858,1009,9,2033,-32,-14,-7,1,0.00439453125,0.99267578125,-0.015625,-0.426829268292683,-0.2134146341463415,0.030487804878048783,0.016,-0.003,0.993,-0.03,0.02,0.02,0.21,-0.99,0.17,1100,1100,1500,1500,0.03,0,2,0,1
180,76648866,1008,10,2034,-33,-13,-7,0,0.0048828125,0.9931640625,-0.01611328125,-0.39634146341463417,-0.2134146341463415,0.0,0.016,-0.003,0.993,-0.01,0.01,0.03,0.21,-0.99,0.17,1100,1100,1500,1500,0.04,0,2,0,1
181,76649875,1009,8,2034,-33,-13,-8,-1,0.00390625,0.9931640625,-0.01611328125,-0.39634146341463417,-0.24390243902439027,-0.030487804878048783,0.016,-0.003,0.993,0.0,0.01,0.03,0.21,-0.99,0.17,1100,1100,1500,1500,0.04,0,2,0,1
182,76650883,1008,5,2034,-34,-14,-8,0,0.00244140625,0.9931640625,-0.0166015625,-0.426829268292683,-0.24390243902439027,0.0,0.016,-0.003,0.993,0.0,0.01,0.02,0.21,-0.99,0.17,1100,1100,1500,1500,0.04,0,2,0,1
183,76651891,1008,5,2034,-34,-15,-9,0,0.00244140625,0.9931640625,-0.0166015625,-0.4573170731707317,-0.27439024390243905,0.0,0.016,-0.003,0.993,0.0,0.03,0.01,0.21,-0.99,0.17,1100,1100,1500,1500,0.04,0,2,0,1
184,76652900,1009,7,2033,-34,-15,-10,0,0.00341796875,0.99267578125,-0.0166015625,-0.4573170731707317,-0.30487804878048785,0.0,0.016,-0.003,0.993,0.0,0.04,0.0,0.21,-0.99,0.17,1100,1100,1500,1500,0.03,0,2,0,1
185,76653908,1008,8,2032,-34,-14,-10,0,0.00390625,0.9921875,-0.0166015625,-0.426829268292683,-0.30487804878048785,0.0,0.016,-0.003,0.992,0.01,0.03,-0.01,0.2,-0.99,0.17,1100,1100,1500,1500,0.03,0,2,0,1
186,76654916,1008,7,2032,-34,-13,-9,1,0.00341796875,0.9921875,-0.0166015625,-0.39634146341463417,-0.27439024390243905,0.030487804878048783,0.016,-0.003,0.992,0.0,0.02,-0.01,0.2,-0.99,0.17,1100,1100,1500,1500,0.03,0,2,0,1
187,76655925,1009,8,2033,-34,-14,-8,2,0.00390625,0.99267578125,-0.0166015625,-0.426829268292683,-0.24390243902439027,0.06097560975609757,0.016,-0.003,0.992,-0.01,0.02,0.0,0.21,-0.99,0.17,1100,1100,1500,1500,0.03,0,2,0,1
188,76656933,1008,9,2033,-34,-15,-8,1,0.00439453125,0.99267578125,-0.0166015625,-0.4573170731707317,-0.24390243902439027,0.030487804878048783,0.016,-0.003,0.992,-0.01,0.04,0.0,0.21,-0.99,0.17,1100,1100,1500,1500,0.03,0,2,0,1
189,76657942,1009,11,2033,-34,-14,-9,0,0.00537109375,0.99267578125,-0.0166015625,-0.426829268292683,-0.27439024390243905,0.0,0.016,-0.003,0.992,0.0,0.03,0.0,0.21,-0.99,0.17,1100,1100,1500,1500,0.04,0,2,0,1
190,76658950,1008,10,2032,-35,-13,-9,0,0.0048828125,0.9921875,-0.01708984375,-0.39634146341463417,-0.27439024390243905,0.0,0.016,-0.004,0.992,0.0,0.02,0.0,0.21,-0.99,0.17,1100,1100,1500,1500,0.04,0,2,0,1
191,76659958,1008,8,2032,-36,-12,-9,-1,0.00390625,0.9921875,-0.017578125,-0.3658536585365854,-0.27439024390243905,-0.030487804878048783,0.016,-0.004,0.992,0.01,0.0,0.0,0.21,-0.99,0.17,1100,1100,1500,1500,0.03,0,2,0,1
192,76660967,1009,7,2032,-35,-11,-9,-2,0.00341796875,0.9921875,-0.01708984375,-0.3353658536585366,-0.27439024390243905,-0.06097560975609757,0.016,-0.003,0.992,0.03,-0.01,0.0,0.21,-0.99,0.17,1100,1100,1500,1500,0.02,0,2,0,1
193,76661975,1008,8,2034,-33,-9,-9,-1,0.00390625,0.9931640625,-0.01611328125,-0.27439024390243905,-0.27439024390243905,-0.030487804878048783,0.016,-0.003,0.992,0.03,-0.04,0.0,0.21,-0.99,0.17,1100,1100,1500,1500,0.03,0,2,0,1
194,76662983,1008,10,2036,-32,-11,-8,-1,0.0048828125,0.994140625,-0.015625,-0.3353658536585366,-0.24390243902439027,-0.030487804878048783,0.016,-0.004,0.992,0.03,-0.05,0.0,0.2,-0.99,0.17,1100,1100,1500,1500,0.04,0,2,0,1
195,76663992,1009,11,2036,-34,-13,-7,-1,0.00537109375,0.994140625,-0.0166015625,-0.39634146341463417,-0.2134146341463415,-0.030487804878048783,0.016,-0.004,0.993,0.03,-0.03,0.02,0.2,-0.99,0.17,1100,1100,1500,1500,0.05,0,2,0,1
196,76665000,1008,9,2036,-35,-14,-7,0,0.00439453125,0.994140625,-0.01708984375,-0.426829268292683,-0.2134146341463415,0.0,0.016,-0.004,0.993,0.03,-0.01,0.03,0.2,-0.99,0.17,1100,1100,1500,1500,0.05,0,2,0,1
197,76666009,1009,8,2036,-35,-13,-7,0,0.00390625,0.994140625,-0.01708984375,-0.39634146341463417,-0.2134146341463415,0.0,0.016,-0.004,0.993,0.02,0.0,0.03,0.2,-0.99,0.17,1100,1100,1500,1500,0.04,0,2,0,1
198,76667017,1008,8,2035,-35,-13,-8,-1,0.00390625,0.99365234375,-0.01708984375,-0.39634146341463417,-0.24390243902439027,-0.030487804878048783,0.016,-0.004,0.993,0.03,0.0,0.03,0.2,-0.99,0.17,1100,1100,1500,1500,0.04,0,2,0,1
199,76668025,1008,8,2034,-34,-15,-9,-1,0.00390625,0.9931640625,-0.0166015625,-0.4573170731707317,-0.27439024390243905,-0.030487804878048783,0.016,-0.004,0.993,0.03,0.01,0.01,0.2,-0.99,0.17,1100,1100,1500,1500,0.03,0,2,0,1
200,76669034,1009,7,2033,-34,-15,-9,0,0.00341796875,0.99267578125,-0.0166015625,-0.4573170731707317,-0.27439024390243905,0.0,0.016,-0.004,0.993,0.02,0.03,0.01,0.2,-0.99,0.17,1100,1100,1500,1500,0.03,0,2,0,1
201,76670042,1008,7,2033,-34,-14,-8,0,0.00341796875,0.99267578125,-0.0166015625,-0.426829268292683,-0.24390243902439027,0.0,0.016,-0.003,0.993,0.02,0.03,0.01,0.2,-0.99,0.17,1100,1100,1500,1500,0.03,0,2,0,1
202,76671050,1008,7,2032,-35,-14,-7,-1,0.00341796875,0.9921875,-0.01708984375,-0.426829268292683,-0.2134146341463415,-0.030487804878048783,0.016,-0.003,0.993,0.02,0.03,0.02,0.2,-0.99,0.17,1100,1100,1500,1500,0.02,0,2,0,1
203,76672059,1009,6,2033,-35,-15,-7,-1,0.0029296875,0.99267578125,-0.01708984375,-0.4573170731707317,-0.2134146341463415,-0.030487804878048783,0.016,-0.003,0.992,0.03,0.04,0.03,0.2,-0.99,0.17,1100,1100,1500,1500,0.02,0,2,0,1
204,76673067,1008,6,2033,-35,-14,-8,0,0.0029296875,0.99267578125,-0.01708984375,-0.426829268292683,-0.24390243902439027,0.0,0.016,-0.003,0.992,0.02,0.03,0.03,0.2,-0.99,0.17,1100,1100,1500,1500,0.01,0,2,0,1
205,76674076,1009,7,2032,-35,-14,-9,0,0.00341796875,0.9921875,-0.01708984375,-0.426829268292683,-0.27439024390243905,0.0,0.016,-0.003,0.992,0.02,0.03,0.01,0.2,-0.99,0.17,1100,1100,1500,1500,0.01,0,2,0,1
206,76675084,1008,7,2032,-35,-14,-9,-1,0.00341796875,0.9921875,-0.01708984375,-0.426829268292683,-0.27439024390243905,-0.030487804878048783,0.016,-0.003,0.992,0.02,0.03,0.0,0.2,-0.99,0.17,1100,1100,1500,1500,0.01,0,2,0,1
207,76676092,1008,6,2032,-34,-13,-9,-1,0.0029296875,0.9921875,-0.0166015625,-0.39634146341463417,-0.27439024390243905,-0.030487804878048783,0.016,-0.003,0.992,0.03,0.02,0.0,0.2,-0.99,0.17,1100,1100,1500,1500,0.02,0,2,0,1
208,76677101,1009,4,2033,-34,-13,-10,-1,0.001953125,0.99267578125,-0.0166015625,-0.39634146341463417,-0.30487804878048785,-0.030487804878048783,0.016,-0.003,0.992,0.03,0.01,-0.01,0.2,-0.99,0.17,1100,1100,1500,1500,0.03,0,2,0,1
209,76678109,1008,4,2035,-32,-13,-9,0,0.001953125,0.99365234375,-0.015625,-0.39634146341463417,-0.27439024390243905,0.0,0.016,-0.003,0.992,0.02,0.01,0.0,0.2,-0.99,0.17,1100,1100,1500,1500,0.04,0,2,0,1
210,76679117,1008,6,2037,-32,-14,-7,0,0.0029296875,0.99462890625,-0.015625,-0.426829268292683,-0.2134146341463415,0.0,0.016,-0.002,0.993,0.02,0.01,0.01,0.2,-0.99,0.17,1100,1100,1500,1500,0.05,0,2,0,1
211,76680124,1007,7,2036,-34,-15,-8,0,0.00341796875,0.994140625,-0.0166015625,-0.4573170731707317,-0.24390243902439027,0.0,0.016,-0.003,0.993,0.01,0.03,0.01,0.2,-0.99,0.17,1100,1100,1500,1500,0.05,0,2,0,1
212,76681133,1009,6,2034,-34,-15,-9,0,0.0029296875,0.9931640625,-0.0166015625,-0.4573170731707317,-0.27439024390243905,0.0,0.016,-0.003,0.993,0.01,0.04,0.0,0.2,-0.99,0.17,1100,1100,1500,1500,0.05,0,2,0,1
213,76682141,1008,5,2033,-34,-14,-8,0,0.00244140625,0.99267578125,-0.0166015625,-0.426829268292683,-0.24390243902439027,0.0,0.016,-0.002,0.993,0.01,0.03,0.01,0.2,-0.99,0.17,1100,1100,1500,1500,0.05,0,2,0,1
214,76683149,1008,6,2032,-35,-13,-9,-1,0.0029296875,0.9921875,-0.01708984375,-0.39634146341463417,-0.27439024390243905,-0.030487804878048783,0.016,-0.002,0.992,0.02,0.02,0.0,0.2,-0.99,0.17,1100,1100,1500,1500,0.05,0,2,0,1
215,76684158,1009,7,2032,-35,-14,-9,-2,0.00341796875,0.9921875,-0.01708984375,-0.426829268292683,-0.27439024390243905,-0.06097560975609757,0.016,-0.003,0.992,0.04,0.02,0.0,0.2,-0.99,0.17,1100,1100,1500,1500,0.04,0,2,0,1
216,76685166,1008,8,2032,-34,-15,-10,-2,0.00390625,0.9921875,-0.0166015625,-0.4573170731707317,-0.30487804878048785,-0.06097560975609757,0.016,-0.003,0.992,0.05,0.04,-0.01,0.2,-0.99,0.17,1100,1100,1500,1500,0.03,0,2,0,1
217,76686175,1009,9,2032,-33,-16,-10,-2,0.00439453125,0.9921875,-0.01611328125,-0.48780487804878053,-0.30487804878048785,-0.06097560975609757,0.016,-0.003,0.992,0.05,0.05,-0.02,0.2,-0.99,0.17,1100,1100,1500,1500,0.03,0,2,0,1
218,76687183,1008,8,2033,-33,-17,-10,-2,0.00390625,0.99267578125,-0.01611328125,-0.5182926829268293,-0.30487804878048785,-0.06097560975609757,0.016,-0.003,0.992,0.06,0.08,-0.02,0.2,-0.99,0.17,1100,1100,1500,1500,0.03,0,2,0,1
219,76688191,1008,7,2035,-33,-17,-10,-1,0.00341796875,0.99365234375,-0.01611328125,-0.5182926829268293,-0.30487804878048785,-0.030487804878048783,0.016,-0.003,0.992,0.05,0.09,-0.03,0.2,-0.99,0.17,1100,1100,1500,1500,0.04,0,2,0,1
220,76689200,1009,6,2035,-32,-16,-10,-1,0.0029296875,0.99365234375,-0.015625,-0.48780487804878053,-0.30487804878048785,-0.030487804878048783,0.016,-0.003,0.992,0.05,0.09,-0.03,0.2,-0.99,0.17,1100,1100,1500,1500,0.05,0,2,0,1
221,76690208,1008,5,2033,-32,-14,-10,-1,0.00244140625,0.99267578125,-0.015625,-0.426829268292683,-0.30487804878048785,-0.030487804878048783,0.016,-0.003,0.992,0.04,0.07,-0.03,0.2,-0.99,0.17,1100,1100,1500,1500,0.06,0,2,0,1
222,76691216,1008,5,2031,-33,-14,-10,-1,0.00244140625,0.99169921875,-0.01611328125,-0.426829268292683,-0.30487804878048785,-0.030487804878048783,0.016,-0.003,0.992,0.04,0.05,-0.03,0.2,-0.99,0.17,1100,1100,1500,1500,0.06,0,2,0,1
223,76692225,1009,5,2031,-34,-16,-10,-1,0.00244140625,0.99169921875,-0.0166015625,-0.48780487804878053,-0.30487804878048785,-0.030487804878048783,0.016,-0.002,0.992,0.04,0.07,-0.03,0.2,-0.99,0.17,1100,1100,1500,1500,0.06,0,2,0,1
224,76693233,1008,6,2032,-34,-16,-11,0,0.0029296875,0.9921875,-0.0166015625,-0.48780487804878053,-0.3353658536585366,0.0,0.016,-0.002,0.992,0.03,0.07,-0.04,0.2,-0.99,0.17,1100,1100,1500,1500,0.06,0,2,0,1
225,76694242,1009,7,2033,-34,-14,-10,0,0.00341796875,0.99267578125,-0.0166015625,-0.426829268292683,-0.30487804878048785,0.0,0.016,-0.003,0.992,0.02,0.06,-0.04,0.2,-0.99,0.17,1100,1100,1500,1500,0.05,0,2,0,1
226,76695250,1008,8,2034,-33,-13,-9,0,0.00390625,0.9931640625,-0.01611328125,-0.39634146341463417,-0.27439024390243905,0.0,0.016,-0.003,0.992,0.02,0.04,-0.03,0.2,-0.99,0.17,1100,1100,1500,1500,0.05,0,2,0,1
227,76696258,1008,8,2035,-31,-13,-8,0,0.00390625,0.99365234375,-0.01513671875,-0.39634146341463417,-0.24390243902439027,0.0,0.016,-0.003,0.992,0.01,0.02,-0.01,0.2,-0.99,0.17,1100,1100,1500,1500,0.06,0,2,0,1
228,76697267,1009,7,2035,-30,-13,-8,0,0.00341796875,0.99365234375,-0.0146484375,-0.39634146341463417,-0.24390243902439027,0.0,0.015,-0.003,0.992,0.01,0.02,0.0,0.2,-0.99,0.17,1100,1100,1500,1500,0.07,0,2,0,1
229,76698275,1008,7,2033,-32,-14,-8,0,0.00341796875,0.99267578125,-0.015625,-0.426829268292683,-0.24390243902439027,0.0,0.015,-0.003,0.992,0.01,0.02,0.0,0.2,-0.99,0.17,1100,1100,1500,1500,0.07,0,2,0,1
230,76699283,1008,7,2034,-34,-15,-9,1,0.00341796875,0.9931640625,-0.0166015625,-0.4573170731707317,-0.27439024390243905,0.030487804878048783,0.015,-0.003,0.992,0.0,0.03,0.0,0.2,-0.99,0.17,1100,1100,1500,1500,0.07,0,2,0,1
231,76700292,1009,8,2035,-36,-14,-9,1,0.00390625,0.99365234375,-0.017578125,-0.426829268292683,-0.27439024390243905,0.030487804878048783,0.016,-0.003,0.993,0.0,0.03,0.0,0.2,-0.99,0.17,1100,1100,1500,1500,0.05,0,2,0,1
232,76701300,1008,7,2035,-36,-14,-9,1,0.00341796875,0.99365234375,-0.017578125,-0.426829268292683,-0.27439024390243905,0.030487804878048783,0.016,-0.003,0.993,0.0,0.03,0.0,0.2,-0.99,0.17,1100,1100,1500,1500,0.04,0,2,0,1
233,76702309,1009,7,2035,-35,-14,-9,0,0.00341796875,0.99365234375,-0.01708984375,-0.426829268292683,-0.27439024390243905,0.0,0.016,-0.003,0.993,0.0,0.03,0.0,0.2,-0.99,0.17,1100,1100,1500,1500,0.03,0,2,0,1
234,76703317,1008,7,2036,-33,-15,-11,0,0.00341796875,0.994140625,-0.01611328125,-0.4573170731707317,-0.3353658536585366,0.0,0.016,-0.003,0.993,0.0,0.04,-0.02,0.2,-0.99,0.17,1100,1100,1500,1500,0.04,0,2,0,1
235,76704325,1008,8,2035,-34,-14,-11,0,0.00390625,0.99365234375,-0.0166015625,-0.426829268292683,-0.3353658536585366,0.0,0.016,-0.003,0.993,0.0,0.03,-0.04,0.2,-0.99,0.17,1100,1100,1500,1500,0.03,0,2,0,1
236,76705334,1009,8,2033,-34,-12,-10,1,0.00390625,0.99267578125,-0.0166015625,-0.3658536585365854,-0.30487804878048785,0.030487804878048783,0.016,-0.003,0.993,0.0,0.01,-0.03,0.2,-0.99,0.17,1100,1100,1500,1500,0.03,0,2,0,1
237,76706342,1008,8,2034,-34,-10,-9,1,0.00390625,0.9931640625,-0.0166015625,-0.30487804878048785,-0.27439024390243905,0.030487804878048783,0.016,-0.003,0.993,0.0,-0.01,-0.02,0.2,-0.99,0.17,1100,1100,1500,1500,0.03,0,2,0,1
238,76707350,1008,7,2034,-35,-10,-9,1,0.00341796875,0.9931640625,-0.01708984375,-0.30487804878048785,-0.27439024390243905,0.030487804878048783,0.016,-0.003,0.993,-0.01,-0.04,-0.02,0.2,-0.99,0.17,1100,1100,1500,1500,0.03,0,2,0,1
239,76708359,1009,6,2033,-36,-12,-9,1,0.0029296875,0.99267578125,-0.017578125,-0.3658536585365854,-0.27439024390243905,0.030487804878048783,0.016,-0.003,0.993,-0.01,-0.03,-0.01,0.2,-0.99,0.17,1100,1100,1500,1500,0.02,0,2,0,1
240,76709367,1008,6,2033,-35,-15,-8,2,0.0029296875,0.99267578125,-0.01708984375,-0.4573170731707317,-0.24390243902439027,0.06097560975609757,0.016,-0.003,0.993,-0.02,0.0,0.0,0.2,-0.99,0.17,1100,1100,1500,1500,0.02,0,2,0,1
241,76710376,1009,6,2034,-35,-16,-8,2,0.0029296875,0.9931640625,-0.01708984375,-0.48780487804878053,-0.24390243902439027,0.06097560975609757,0.016,-0.003,0.993,-0.03,0.02,0.0,0.2,-0.99,0.17,1100,1100,1500,1500,0.02,0,2,0,1
242,76711384,1008,7,2034,-36,-15,-9,3,0.00341796875,0.9931640625,-0.017578125,-0.4573170731707317,-0.27439024390243905,0.09146341463414635,0.016,-0.003,0.993,-0.04,0.04,0.0,0.2,-0.99,0.17,1100,1100,1500,1500,0.01,0,2,0,1
243,76712392,1008,8,2034,-37,-15,-9,4,0.00390625,0.9931640625,-0.01806640625,-0.4573170731707317,-0.27439024390243905,0.12195121951219513,0.017,-0.003,0.993,-0.06,0.04,0.0,0.2,-0.99,0.17,1100,1100,1500,1500,0.01,0,2,0,1
244,76713401,1009,7,2033,-37,-15,-9,3,0.00341796875,0.99267578125,-0.01806640625,-0.4573170731707317,-0.27439024390243905,0.09146341463414635,0.017,-0.003,0.993,-0.07,0.05,0.0,0.2,-0.99,0.17,1100,1100,1500,1500,0.01,0,2,0,1
245,76714409,1008,8,2033,-37,-15,-9,1,0.00390625,0.99267578125,-0.01806640625,-0.4573170731707317,-0.27439024390243905,0.030487804878048783,0.017,-0.003,0.992,-0.05,0.05,0.0,0.2,-0.99,0.17,1100,1100,1500,1500,0.01,0,2,0,1
246,76715417,1008,9,2035,-37,-15,-9,0,0.00439453125,0.99365234375,-0.01806640625,-0.4573170731707317,-0.27439024390243905,0.0,0.017,-0.003,0.993,-0.03,0.05,0.0,0.2,-0.99,0.17,1100,1100,1500,1500,0.02,0,2,0,1
247,76716426,1009,10,2036,-36,-14,-9,1,0.0048828125,0.994140625,-0.017578125,-0.426829268292683,-0.27439024390243905,0.030487804878048783,0.017,-0.003,0.993,-0.02,0.04,0.0,0.2,-0.99,0.17,1100,1100,1500,1500,0.02,0,2,0,1
248,76717434,1008,11,2035,-35,-13,-9,2,0.00537109375,0.99365234375,-0.01708984375,-0.39634146341463417,-0.27439024390243905,0.06097560975609757,0.017,-0.004,0.993,-0.03,0.03,0.0,0.2,-0.99,0.17,1100,1100,1500,1500,0.03,0,2,0,1
249,76718443,1009,12,2035,-34,-14,-10,0,0.005859375,0.99365234375,-0.0166015625,-0.426829268292683,-0.30487804878048785,0.0,0.017,-0.004,0.993,-0.01,0.03,-0.01,0.2,-0.99,0.17,1100,1100,1500,1500,0.04,0,2,0,1
250,76719451,1008,10,2035,-34,-13,-9,0,0.0048828125,0.99365234375,-0.0166015625,-0.39634146341463417,-0.27439024390243905,0.0,0.017,-0.004,0.993,0.0,0.02,-0.01,0.2,-0.99,0.17,1100,1100,1500,1500,0.04,0,2,0,1
251,76720459,1008,7,2035,-36,-12,-9,2,0.00341796875,0.99365234375,-0.017578125,-0.3658536585365854,-0.27439024390243905,0.06097560975609757,0.017,-0.004,0.993,-0.02,0.0,-0.01,0.2,-0.99,0.17,1100,1100,1500,1500,0.03,0,2,0,1
252,76721468,1009,6,2033,-37,-13,-8,2,0.0029296875,0.99267578125,-0.01806640625,-0.39634146341463417,-0.24390243902439027,0.06097560975609757,0.017,-0.004,0.993,-0.03,0.0,0.0,0.2,-0.99,0.17,1100,1100,1500,1500,0.02,0,2,0,1
253,76722476,1008,8,2033,-37,-15,-10,1,0.00390625,0.99267578125,-0.01806640625,-0.4573170731707317,-0.30487804878048785,0.030487804878048783,0.017,-0.004,0.993,-0.02,0.02,-0.01,0.2,-0.99,0.17,1100,1100,1500,1500,0.03,0,2,0,1
254,76723484,1008,9,2034,-37,-17,-12,0,0.00439453125,0.9931640625,-0.01806640625,-0.5182926829268293,-0.3658536585365854,0.0,0.017,-0.004,0.993,-0.01,0.05,-0.04,0.2,-0.99,0.17,1100,1100,1500,1500,0.03,0,2,0,1
255,76724493,1009,10,2034,-35,-16,-11,0,0.0048828125,0.9931640625,-0.01708984375,-0.48780487804878053,-0.3353658536585366,0.0,0.017,-0.004,0.993,0.0,0.06,-0.05,0.2,-0.99,0.17,1100,1100,1500,1500,0.04,0,2,0,1
256,76725501,1008,10,2035,-34,-14,-9,0,0.0048828125,0.99365234375,-0.0166015625,-0.426829268292683,-0.27439024390243905,0.0,0.017,-0.004,0.993,0.0,0.05,-0.03,0.2,-0.99,0.17,1100,1100,1500,1500,0.04,0,2,0,1
257,76726510,1009,10,2036,-33,-12,-7,1,0.0048828125,0.994140625,-0.01611328125,-0.3658536585365854,-0.2134146341463415,0.030487804878048783,0.017,-0.004,0.993,0.0,0.02,0.0,0.2,-0.98,0.17,1100,1100,1500,1500,0.04,0,2,0,1
258,76727518,1008,9,2035,-33,-12,-7,1,0.00439453125,0.99365234375,-0.01611328125,-0.3658536585365854,-0.2134146341463415,0.030487804878048783,0.017,-0.004,0.993,-0.01,0.0,0.01,0.2,-0.98,0.17,1100,1100,1500,1500,0.04,0,2,0,1
259,76728526,1008,8,2035,-32,-11,-7,1,0.00390625,0.99365234375,-0.015625,-0.3353658536585366,-0.2134146341463415,0.030487804878048783,0.016,-0.004,0.993,-0.01,-0.01,0.02,0.2,-0.98,0.17,1100,1100,1500,1500,0.04,0,2,0,1
260,76729535,1009,7,2035,-33,-10,-8,1,0.00341796875,0.99365234375,-0.01611328125,-0.30487804878048785,-0.24390243902439027,0.030487804878048783,0.016,-0.004,0.993,-0.01,-0.03,0.02,0.2,-0.98,0.17,1100,1100,1500,1500,0.04,0,2,0,1
261,76730543,1008,7,2035,-34,-12,-8,0,0.00341796875,0.99365234375,-0.0166015625,-0.3658536585365854,-0.24390243902439027,0.0,0.016,-0.004,0.993,0.0,-0.03,0.02,0.2,-0.99,0.17,1100,1100,1500,1500,0.03,0,2,0,1
262,76731552,1009,8,2036,-33,-13,-8,0,0.00390625,0.994140625,-0.01611328125,-0.39634146341463417,-0.24390243902439027,0.0,0.016,-0.004,0.993,0.0,-0.02,0.02,0.2,-0.99,0.17,1100,1100,1500,1500,0.04,0,2,0,1
263,76732560,1008,8,2038,-32,-13,-9,1,0.00390625,0.9951171875,-0.015625,-0.39634146341463417,-0.27439024390243905,0.030487804878048783,0.016,-0.004,0.993,0.0,-0.01,0.01,0.2,-0.99,0.17,1100,1100,1500,1500,0.04,0,2,0,1
264,76733568,1008,7,2039,-31,-12,-9,1,0.00341796875,0.99560546875,-0.01513671875,-0.3658536585365854,-0.27439024390243905,0.030487804878048783,0.016,-0.003,0.994,-0.01,-0.01,0.0,0.2,-0.99,0.17,1100,1100,1500,1500,0.05,0,2,0,1
265,76734577,1009,7,2037,-31,-14,-9,1,0.00341796875,0.99462890625,-0.01513671875,-0.426829268292683,-0.27439024390243905,0.030487804878048783,0.016,-0.003,0.994,-0.01,0.0,0.0,0.2,-0.98,0.17,1100,1100,1500,1500,0.06,0,2,0,1
266,76735585,1008,8,2034,-32,-16,-9,2,0.00390625,0.9931640625,-0.015625,-0.48780487804878053,-0.27439024390243905,0.06097560975609757,0.015,-0.003,0.994,-0.02,0.03,0.0,0.2,-0.98,0.17,1100,1100,1500,1500,0.06,0,2,0,1
267,76736593,1008,8,2033,-35,-15,-7,2,0.00390625,0.99267578125,-0.01708984375,-0.4573170731707317,-0.2134146341463415,0.06097560975609757,0.016,-0.003,0.993,-0.03,0.04,0.01,0.2,-0.98,0.17,1100,1100,1500,1500,0.05,0,2,0,1
268,76737602,1009,8,2033,-36,-13,-6,2,0.00390625,0.99267578125,-0.017578125,-0.39634146341463417,-0.1829268292682927,0.06097560975609757,0.016,-0.003,0.993,-0.03,0.02,0.03,0.2,-0.98,0.17,1100,1100,1500,1500,0.04,0,2,0,1
269,76738610,1008,7,2034,-34,-12,-6,2,0.00341796875,0.9931640625,-0.0166015625,-0.3658536585365854,-0.1829268292682927,0.06097560975609757,0.016,-0.003,0.993,-0.04,0.0,0.05,0.2,-0.98,0.17,1100,1100,1500,1500,0.04,0,2,0,1
270,76739618,1008,7,2034,-35,-11,-7,1,0.00341796875,0.9931640625,-0.01708984375,-0.3353658536585366,-0.2134146341463415,0.030487804878048783,0.016,-0.003,0.993,-0.03,-0.01,0.05,0.2,-0.98,0.17,1100,1100,1500,1500,0.03,0,2,0,1
271,76740627,1009,6,2033,-36,-10,-7,1,0.0029296875,0.99267578125,-0.017578125,-0.30487804878048785,-0.2134146341463415,0.030487804878048783,0.016,-0.003,0.993,-0.02,-0.03,0.05,0.2,-0.98,0.17,1100,1100,1500,1500,0.02,0,2,0,1
272,76741635,1008,6,2032,-35,-12,-8,1,0.0029296875,0.9921875,-0.01708984375,-0.3658536585365854,-0.24390243902439027,0.030487804878048783,0.016,-0.003,0.993,-0.02,-0.03,0.04,0.2,-0.98,0.17,1100,1100,1500,1500,0.02,0,2,0,1
273,76742643,1008,7,2033,-34,-14,-8,1,0.00341796875,0.99267578125,-0.0166015625,-0.426829268292683,-0.24390243902439027,0.030487804878048783,0.016,-0.003,0.993,-0.02,-0.01,0.03,0.2,-0.98,0.17,1100,1100,1500,1500,0.02,0,2,0,1
274,76743651,1008,9,2034,-35,-14,-7,0,0.00439453125,0.9931640625,-0.01708984375,-0.426829268292683,-0.2134146341463415,0.0,0.016,-0.003,0.993,-0.01,0.0,0.04,0.2,-0.98,0.17,1100,1100,1500,1500,0.02,0,2,0,1
275,76744660,1009,8,2034,-36,-12,-7,0,0.00390625,0.9931640625,-0.017578125,-0.3658536585365854,-0.2134146341463415,0.0,0.016,-0.003,0.993,0.0,0.0,0.04,0.2,-0.98,0.17,1100,1100,1500,1500,0.01,0,2,0,1
276,76745668,1008,8,2035,-37,-12,-9,-1,0.00390625,0.99365234375,-0.01806640625,-0.3658536585365854,-0.27439024390243905,-0.030487804878048783,0.017,-0.003,0.993,0.01,-0.01,0.02,0.2,-0.98,0.17,1100,1100,1500,1500,0.0,0,2,0,1
277,76746676,1008,7,2036,-37,-12,-9,-1,0.00341796875,0.994140625,-0.01806640625,-0.3658536585365854,-0.27439024390243905,-0.030487804878048783,0.017,-0.003,0.993,0.02,-0.01,0.01,0.2,-0.98,0.17,1100,1100,1500,1500,0.0,0,2,0,1
278,76747685,1009,5,2036,-37,-12,-8,-2,0.00244140625,0.994140625,-0.01806640625,-0.3658536585365854,-0.24390243902439027,-0.06097560975609757,0.017,-0.003,0.993,0.03,-0.02,0.01,0.2,-0.98,0.17,1100,1100,1500,1500,0.01,0,2,0,1
279,76748693,1008,5,2035,-36,-12,-8,-1,0.00244140625,0.99365234375,-0.017578125,-0.3658536585365854,-0.24390243902439027,-0.030487804878048783,0.017,-0.003,0.993,0.04,-0.02,0.01,0.2,-0.98,0.17,1100,1100,1500,1500,0.02,0,2,0,1
280,76749701,1008,6,2034,-35,-13,-8,0,0.0029296875,0.9931640625,-0.01708984375,-0.39634146341463417,-0.24390243902439027,0.0,0.017,-0.003,0.993,0.03,-0.01,0.02,0.2,-0.98,0.17,1100,1100,1500,1500,0.02,0,2,0,1
281,76750710,1009,8,2035,-35,-13,-9,0,0.00390625,0.99365234375,-0.01708984375,-0.39634146341463417,-0.27439024390243905,0.0,0.017,-0.003,0.993,0.02,0.0,0.01,0.2,-0.98,0.17,1100,1100,1500,1500,0.01,0,2,0,1
282,76751718,1008,8,2034,-35,-13,-8,0,0.00390625,0.9931640625,-0.01708984375,-0.39634146341463417,-0.24390243902439027,0.0,0.017,-0.003,0.993,0.02,0.0,0.01,0.2,-0.98,0.17,1100,1100,1500,1500,0.01,0,2,0,1
283,76752727,1009,7,2032,-35,-14,-6,0,0.00341796875,0.9921875,-0.01708984375,-0.426829268292683,-0.1829268292682927,0.0,0.017,-0.003,0.993,0.01,0.0,0.03,0.2,-0.98,0.17,1100,1100,1500,1500,0.01,0,2,0,1
284,76753735,1008,4,2032,-36,-16,-5,0,0.001953125,0.9921875,-0.017578125,-0.48780487804878053,-0.15243902439024393,0.0,0.017,-0.003,0.993,0.01,0.03,0.06,0.2,-0.98,0.17,1100,1100,1500,1500,0.02,0,2,0,1
285,76754743,1008,3,2034,-38,-16,-7,-1,0.00146484375,0.9931640625,-0.0185546875,-0.48780487804878053,-0.2134146341463415,-0.030487804878048783,0.017,-0.002,0.993,0.02,0.05,0.05,0.2,-0.98,0.17,1100,1100,1500,1500,0.04,0,2,0,1
286,76755752,1009,7,2035,-39,-14,-8,-1,0.00341796875,0.99365234375,-0.01904296875,-0.426829268292683,-0.24390243902439027,-0.030487804878048783,0.017,-0.003,0.993,0.03,0.04,0.04,0.2,-0.98,0.17,1100,1100,1500,1500,0.04,0,2,0,1
287,76756760,1008,11,2035,-37,-13,-8,-2,0.00537109375,0.99365234375,-0.01806640625,-0.39634146341463417,-0.24390243902439027,-0.06097560975609757,0.017,-0.003,0.993,0.04,0.03,0.03,0.2,-0.98,0.17,1100,1100,1500,1500,0.03,0,2,0,1
288,76757768,1008,11,2033,-34,-13,-9,-3,0.00537109375,0.99267578125,-0.0166015625,-0.39634146341463417,-0.27439024390243905,-0.09146341463414635,0.017,-0.003,0.993,0.06,0.02,0.02,0.2,-0.98,0.17,1100,1100,1500,1500,0.02,0,2,0,1
289,76758777,1009,9,2032,-33,-13,-10,-3,0.00439453125,0.9921875,-0.01611328125,-0.39634146341463417,-0.30487804878048785,-0.09146341463414635,0.017,-0.003,0.993,0.07,0.01,0.0,0.2,-0.98,0.17,1100,1100,1500,1500,0.01,0,2,0,1
290,76759785,1008,7,2031,-36,-12,-10,-1,0.00341796875,0.99169921875,-0.017578125,-0.3658536585365854,-0.30487804878048785,-0.030487804878048783,0.017,-0.003,0.992,0.06,0.0,-0.01,0.2,-0.98,0.17,1100,1100,1500,1500,0.01,0,2,0,1
291,76760794,1009,7,2032,-38,-12,-10,0,0.00341796875,0.9921875,-0.0185546875,-0.3658536585365854,-0.30487804878048785,0.0,0.017,-0.003,0.992,0.04,0.0,-0.02,0.2,-0.98,0.17,1100,1100,1500,1500,0.02,0,2,0,1
292,76761802,1008,7,2034,-37,-14,-9,0,0.00341796875,0.9931640625,-0.01806640625,-0.426829268292683,-0.27439024390243905,0.0,0.017,-0.003,0.992,0.03,0.0,-0.01,0.2,-0.98,0.17,1100,1100,1500,1500,0.02,0,2,0,1
293,76762810,1008,7,2036,-34,-13,-8,0,0.00341796875,0.994140625,-0.0166015625,-0.39634146341463417,-0.24390243902439027,0.0,0.017,-0.003,0.992,0.02,0.0,0.0,0.2,-0.98,0.17,1100,1100,1500,1500,0.01,0,2,0,1
294,76763819,1009,7,2036,-32,-11,-9,0,0.00341796875,0.994140625,-0.015625,-0.3353658536585366,-0.27439024390243905,0.0,0.017,-0.003,0.993,0.02,-0.01,0.0,0.2,-0.98,0.17,1100,1100,1500,1500,0.0,0,2,0,1
295,76764827,1008,6,2035,-32,-12,-10,-1,0.0029296875,0.99365234375,-0.015625,-0.3658536585365854,-0.30487804878048785,-0.030487804878048783,0.016,-0.003,0.993,0.02,-0.02,-0.01,0.2,-0.98,0.17,1100,1100,1500,1500,0.01,0,2,0,1
296,76765835,1008,6,2035,-34,-14,-11,-1,0.0029296875,0.99365234375,-0.0166015625,-0.426829268292683,-0.3353658536585366,-0.030487804878048783,0.016,-0.003,0.993,0.03,0.0,-0.03,0.2,-0.98,0.17,1100,1100,1500,1500,0.02,0,2,0,1
297,76766844,1009,7,2036,-34,-15,-10,0,0.00341796875,0.994140625,-0.0166015625,-0.4573170731707317,-0.30487804878048785,0.0,0.016,-0.003,0.993,0.02,0.01,-0.03,0.2,-0.98,0.17,1100,1100,1500,1500,0.02,0,2,0,1
298,76767852,1008,8,2036,-34,-14,-9,1,0.00390625,0.994140625,-0.0166015625,-0.426829268292683,-0.27439024390243905,0.030487804878048783,0.016,-0.003,0.993,0.01,0.02,-0.02,0.2,-0.98,0.17,1100,1100,1500,1500,0.02,0,2,0,1
299,76768861,1009,8,2035,-34,-13,-8,1,0.00390625,0.99365234375,-0.0166015625,-0.39634146341463417,-0.24390243902439027,0.030487804878048783,0.016,-0.003,0.993,0.0,0.01,0.0,0.2,-0.98,0.17,1100,1100,1500,1500,0.02,0,2,0,1
300,76769869,1008,8,2034,-34,-12,-7,0,0.00390625,0.9931640625,-0.0166015625,-0.3658536585365854,-0.2134146341463415,0.0,0.016,-0.003,0.993,0.0,0.0,0.01,0.2,-0.98,0.17,1100,1100,1500,1500,0.02,0,2,0,1
301,76770877,1008,7,2034,-34,-13,-7,0,0.00341796875,0.9931640625,-0.0166015625,-0.39634146341463417,-0.2134146341463415,0.0,0.016,-0.003,0.993,0.0,0.0,0.02,0.2,-0.98,0.17,1100,1100,1500,1500,0.02,0,2,0,1
302,76771886,1009,7,2035,-35,-12,-7,-1,0.00341796875,0.99365234375,-0.01708984375,-0.3658536585365854,-0.2134146341463415,-0.030487804878048783,0.016,-0.003,0.993,0.01,0.0,0.03,0.2,-0.98,0.17,1100,1100,1500,1500,0.02,0,2,0,1
303,76772894,1008,5,2034,-36,-12,-8,-1,0.00244140625,0.9931640625,-0.017578125,-0.3658536585365854,-0.24390243902439027,-0.030487804878048783,0.016,-0.003,0.993,0.02,-0.01,0.03,0.2,-0.98,0.17,1100,1100,1500,1500,0.02,0,2,0,1
304,76773902,1008,4,2033,-37,-11,-9,0,0.001953125,0.99267578125,-0.01806640625,-0.3353658536585366,-0.27439024390243905,0.0,0.017,-0.003,0.993,0.02,-0.02,0.01,0.2,-0.98,0.17,1100,1100,1500,1500,0.02,0,2,0,1
305,76774911,1009,6,2034,-37,-11,-9,0,0.0029296875,0.9931640625,-0.01806640625,-0.3353658536585366,-0.27439024390243905,0.0,0.017,-0.003,0.993,0.01,-0.03,0.0,0.2,-0.98,0.17,1100,1100,1500,1500,0.02,0,2,0,1
306,76775919,1008,6,2036,-36,-11,-9,0,0.0029296875,0.994140625,-0.017578125,-0.3353658536585366,-0.27439024390243905,0.0,0.017,-0.003,0.993,0.01,-0.04,0.0,0.2,-0.98,0.17,1100,1100,1500,1500,0.03,0,2,0,1
307,76776928,1009,6,2036,-36,-12,-8,-1,0.0029296875,0.994140625,-0.017578125,-0.3658536585365854,-0.24390243902439027,-0.030487804878048783,0.017,-0.003,0.993,0.02,-0.04,0.0,0.2,-0.98,0.17,1100,1100,1500,1500,0.03,0,2,0,1
308,76777936,1008,5,2035,-35,-12,-8,-1,0.00244140625,0.99365234375,-0.01708984375,-0.3658536585365854,-0.24390243902439027,-0.030487804878048783,0.017,-0.002,0.993,0.03,-0.03,0.01,0.2,-0.98,0.17,1100,1100,1500,1500,0.03,0,2,0,1
309,76778944,1008,5,2033,-33,-12,-9,0,0.00244140625,0.99267578125,-0.01611328125,-0.3658536585365854,-0.27439024390243905,0.0,0.017,-0.002,0.993,0.02,-0.03,0.0,0.2,-0.98,0.17,1100,1100,1500,1500,0.04,0,2,0,1
310,76779953,1009,6,2033,-31,-14,-9,0,0.0029296875,0.99267578125,-0.01513671875,-0.426829268292683,-0.27439024390243905,0.0,0.016,-0.002,0.993,0.02,-0.01,0.0,0.2,-0.98,0.17,1100,1100,1500,1500,0.04,0,2,0,1
311,76780961,1008,7,2034,-31,-15,-9,-2,0.00341796875,0.9931640625,-0.01513671875,-0.4573170731707317,-0.27439024390243905,-0.06097560975609757,0.016,-0.002,0.993,0.03,0.01,0.0,0.2,-0.98,0.17,1100,1100,1500,1500,0.05,0,2,0,1
312,76781969,1008,7,2034,-31,-14,-9,-2,0.00341796875,0.9931640625,-0.01513671875,-0.426829268292683,-0.27439024390243905,-0.06097560975609757,0.016,-0.003,0.993,0.04,0.01,0.0,0.2,-0.98,0.17,1100,1100,1500,1500,0.05,0,2,0,1
313,76782978,1009,7,2034,-32,-12,-8,-1,0.00341796875,0.9931640625,-0.015625,-0.3658536585365854,-0.24390243902439027,-0.030487804878048783,0.016,-0.003,0.993,0.04,0.0,0.0,0.2,-0.98,0.17,1100,1100,1500,1500,0.06,0,2,0,1
314,76783986,1008,7,2033,-34,-12,-7,0,0.00341796875,0.99267578125,-0.0166015625,-0.3658536585365854,-0.2134146341463415,0.0,0.016,-0.003,0.993,0.03,0.0,0.02,0.2,-0.98,0.17,1100,1100,1500,1500,0.05,0,2,0,1
315,76784995,1009,8,2033,-36,-12,-7,0,0.00390625,0.99267578125,-0.017578125,-0.3658536585365854,-0.2134146341463415,0.0,0.016,-0.003,0.993,0.02,-0.01,0.03,0.2,-0.98,0.17,1100,1100,1500,1500,0.04,0,2,0,1
316,76786001,1006,8,2033,-36,-12,-8,0,0.00390625,0.99267578125,-0.017578125,-0.3658536585365854,-0.24390243902439027,0.0,0.016,-0.003,0.993,0.02,-0.01,0.02,0.2,-0.98,0.17,1100,1100,1500,1500,0.03,0,2,0,1
317,76787009,1008,9,2035,-35,-13,-9,0,0.00439453125,0.99365234375,-0.01708984375,-0.39634146341463417,-0.27439024390243905,0.0,0.016,-0.003,0.993,0.01,-0.01,0.01,0.2,-0.98,0.17,1100,1100,1500,1500,0.02,0,2,0,1
318,76788018,1009,8,2035,-34,-15,-9,1,0.00390625,0.99365234375,-0.0166015625,-0.4573170731707317,-0.27439024390243905,0.030487804878048783,0.016,-0.003,0.993,0.0,0.01,0.0,0.2,-0.98,0.17,1100,1100,1500,1500,0.02,0,2,0,1
319,76789026,1008,9,2035,-34,-15,-10,2,0.00439453125,0.99365234375,-0.0166015625,-0.4573170731707317,-0.30487804878048785,0.06097560975609757,0.016,-0.003,0.993,-0.01,0.02,0.0,0.2,-0.98,0.17,1100,1100,1500,1500,0.02,0,2,0,1
320,76790034,1008,9,2035,-34,-13,-10,1,0.00439453125,0.99365234375,-0.0166015625,-0.39634146341463417,-0.30487804878048785,0.030487804878048783,0.016,-0.003,0.993,-0.01,0.02,-0.01,0.2,-0.98,0.17,1100,1100,1500,1500,0.03,0,2,0,1
321,76791043,1009,7,2035,-33,-14,-10,1,0.00341796875,0.99365234375,-0.01611328125,-0.426829268292683,-0.30487804878048785,0.030487804878048783,0.016,-0.003,0.993,-0.01,0.02,-0.02,0.2,-0.98,0.17,1100,1100,1500,1500,0.03,0,2,0,1
322,76792051,1008,5,2034,-32,-14,-9,1,0.00244140625,0.9931640625,-0.015625,-0.426829268292683,-0.27439024390243905,0.030487804878048783,0.016,-0.003,0.993,-0.01,0.02,-0.01,0.2,-0.98,0.17,1100,1100,1500,1500,0.04,0,2,0,1
323,76793060,1009,6,2035,-31,-14,-9,0,0.0029296875,0.99365234375,-0.01513671875,-0.426829268292683,-0.27439024390243905,0.0,0.016,-0.003,0.993,0.0,0.02,-0.01,0.2,-0.98,0.17,1100,1100,1500,1500,0.05,0,2,0,1
324,76794068,1008,8,2035,-30,-13,-8,0,0.00390625,0.99365234375,-0.0146484375,-0.39634146341463417,-0.24390243902439027,0.0,0.015,-0.003,0.993,0.0,0.02,0.0,0.2,-0.98,0.17,1100,1100,1500,1500,0.06,0,2,0,1
325,76795076,1008,9,2035,-31,-13,-9,1,0.00439453125,0.99365234375,-0.01513671875,-0.39634146341463417,-0.27439024390243905,0.030487804878048783,0.015,-0.003,0.993,0.0,0.01,0.0,0.2,-0.98,0.17,1100,1100,1500,1500,0.07,0,2,0,1
326,76796085,1009,10,2035,-33,-13,-10,1,0.0048828125,0.99365234375,-0.01611328125,-0.39634146341463417,-0.30487804878048785,0.030487804878048783,0.015,-0.003,0.993,-0.01,0.01,-0.01,0.2,-0.98,0.17,1100,1100,1500,1500,0.07,0,2,0,1
327,76797093,1008,11,2035,-34,-13,-10,1,0.00537109375,0.99365234375,-0.0166015625,-0.39634146341463417,-0.30487804878048785,0.030487804878048783,0.015,-0.004,0.993,-0.01,0.0,-0.02,0.2,-0.98,0.17,1100,1100,1500,1500,0.07,0,2,0,1
328,76798101,1008,10,2035,-32,-12,-9,2,0.0048828125,0.99365234375,-0.015625,-0.3658536585365854,-0.27439024390243905,0.06097560975609757,0.015,-0.004,0.993,-0.02,0.0,-0.01,0.2,-0.98,0.17,1100,1100,1500,1500,0.07,0,2,0,1
329,76799110,1009,8,2034,-33,-13,-9,3,0.00390625,0.9931640625,-0.01611328125,-0.39634146341463417,-0.27439024390243905,0.09146341463414635,0.015,-0.004,0.993,-0.04,0.0,-0.01,0.2,-0.98,0.17,1100,1100,1500,1500,0.07,0,2,0,1
330,76800118,1008,7,2034,-34,-15,-8,2,0.00341796875,0.9931640625,-0.0166015625,-0.4573170731707317,-0.24390243902439027,0.06097560975609757,0.016,-0.004,0.993,-0.04,0.01,0.0,0.2,-0.98,0.17,1100,1100,1500,1500,0.06,0,2,0,1
331,76801127,1009,8,2034,-34,-15,-8,1,0.00390625,0.9931640625,-0.0166015625,-0.4573170731707317,-0.24390243902439027,0.030487804878048783,0.016,-0.004,0.993,-0.03,0.03,0.0,0.2,-0.98,0.17,1100,1100,1500,1500,0.06,0,2,0,1
332,76802135,1008,9,2033,-33,-14,-8,0,0.00439453125,0.99267578125,-0.01611328125,-0.426829268292683,-0.24390243902439027,0.0,0.016,-0.004,0.993,-0.02,0.03,0.01,0.2,-0.98,0.17,1100,1100,1500,1500,0.06,0,2,0,1
333,76803143,1008,7,2032,-33,-12,-8,0,0.00341796875,0.9921875,-0.01611328125,-0.3658536585365854,-0.24390243902439027,0.0,0.016,-0.003,0.993,0.0,0.01,0.01,0.2,-0.98,0.17,1100,1100,1500,1500,0.06,0,2,0,1
334,76804152,1009,4,2033,-35,-12,-8,-1,0.001953125,0.99267578125,-0.01708984375,-0.3658536585365854,-0.24390243902439027,-0.030487804878048783,0.016,-0.003,0.993,0.0,0.0,0.01,0.2,-0.98,0.17,1100,1100,1500,1500,0.04,0,2,0,1
335,76805160,1008,4,2034,-36,-12,-8,-1,0.001953125,0.9931640625,-0.017578125,-0.3658536585365854,-0.24390243902439027,-0.030487804878048783,0.016,-0.003,0.993,0.01,-0.01,0.01,0.2,-0.98,0.17,1100,1100,1500,1500,0.03,0,2,0,1
336,76806168,1008,6,2034,-37,-12,-8,0,0.0029296875,0.9931640625,-0.01806640625,-0.3658536585365854,-0.24390243902439027,0.0,0.016,-0.003,0.993,0.01,-0.01,0.02,0.2,-0.98,0.17,1100,1100,1500,1500,0.02,0,2,0,1
337,76807177,1009,8,2032,-35,-12,-9,0,0.00390625,0.9921875,-0.01708984375,-0.3658536585365854,-0.27439024390243905,0.0,0.016,-0.003,0.992,0.01,-0.02,0.01,0.2,-0.98,0.17,1100,1100,1500,1500,0.02,0,2,0,1
338,76808185,1008,8,2032,-32,-11,-9,-1,0.00390625,0.9921875,-0.015625,-0.3353658536585366,-0.27439024390243905,-0.030487804878048783,0.016,-0.003,0.992,0.02,-0.03,0.0,0.2,-0.98,0.17,1100,1100,1500,1500,0.03,0,2,0,1
339,76809193,1008,9,2032,-31,-12,-8,0,0.00439453125,0.9921875,-0.01513671875,-0.3658536585365854,-0.24390243902439027,0.0,0.016,-0.003,0.992,0.02,-0.03,0.01,0.2,-0.98,0.17,1100,1100,1500,1500,0.04,0,2,0,1
340,76810202,1009,8,2032,-33,-13,-8,1,0.00390625,0.9921875,-0.01611328125,-0.39634146341463417,-0.24390243902439027,0.030487804878048783,0.016,-0.003,0.992,0.0,-0.02,0.01,0.2,-0.98,0.17,1100,1100,1500,1500,0.04,0,2,0,1
341,76811210,1008,7,2032,-35,-13,-8,1,0.00341796875,0.9921875,-0.01708984375,-0.39634146341463417,-0.24390243902439027,0.030487804878048783,0.016,-0.003,0.992,0.0,-0.01,0.01,0.2,-0.98,0.17,1100,1100,1500,1500,0.03,0,2,0,1
342,76812219,1009,8,2034,-36,-12,-9,0,0.00390625,0.9931640625,-0.017578125,-0.3658536585365854,-0.27439024390243905,0.0,0.016,-0.003,0.992,0.0,-0.01,0.0,0.2,-0.98,0.17,1100,1100,1500,1500,0.02,0,2,0,1
343,76813227,1008,10,2037,-35,-13,-9,0,0.0048828125,0.99462890625,-0.01708984375,-0.39634146341463417,-0.27439024390243905,0.0,0.016,-0.003,0.992,0.0,-0.01,0.0,0.2,-0.98,0.17,1100,1100,1500,1500,0.02,0,2,0,1
344,76814235,1008,9,2037,-34,-14,-9,0,0.00439453125,0.99462890625,-0.0166015625,-0.426829268292683,-0.27439024390243905,0.0,0.016,-0.003,0.993,0.0,0.0,0.0,0.2,-0.98,0.17,1100,1100,1500,1500,0.03,0,2,0,1
345,76815244,1009,8,2035,-33,-14,-9,0,0.00390625,0.99365234375,-0.01611328125,-0.426829268292683,-0.27439024390243905,0.0,0.016,-0.003,0.993,0.0,0.01,0.0,0.2,-0.98,0.17,1100,1100,1500,1500,0.03,0,2,0,1
346,76816252,1008,7,2032,-34,-13,-9,1,0.00341796875,0.9921875,-0.0166015625,-0.39634146341463417,-0.27439024390243905,0.030487804878048783,0.016,-0.003,0.993,0.0,0.0,0.0,0.2,-0.98,0.17,1100,1100,1500,1500,0.03,0,2,0,1
347,76817261,1009,8,2032,-35,-12,-8,3,0.00390625,0.9921875,-0.01708984375,-0.3658536585365854,-0.24390243902439027,0.09146341463414635,0.016,-0.003,0.992,-0.02,0.0,0.0,0.2,-0.98,0.17,1100,1100,1500,1500,0.03,0,2,0,1
348,76818269,1008,8,2033,-35,-10,-8,3,0.00390625,0.99267578125,-0.01708984375,-0.30487804878048785,-0.24390243902439027,0.09146341463414635,0.016,-0.003,0.992,-0.04,-0.03,0.01,0.2,-0.98,0.17,1100,1100,1500,1500,0.02,0,2,0,1
349,76819277,1008,7,2034,-34,-11,-9,2,0.00341796875,0.9931640625,-0.0166015625,-0.3353658536585366,-0.27439024390243905,0.06097560975609757,0.016,-0.003,0.992,-0.04,-0.04,0.0,0.2,-0.98,0.17,1100,1100,1500,1500,0.02,0,2,0,1
350,76820286,1009,5,2034,-36,-14,-8,1,0.00244140625,0.9931640625,-0.017578125,-0.426829268292683,-0.24390243902439027,0.030487804878048783,0.016,-0.003,0.992,-0.03,-0.01,0.01,0.2,-0.98,0.17,1100,1100,1500,1500,0.01,0,2,0,1
351,76821309,1023,6,2033,-36,-15,-7,1,0.0029296875,0.99267578125,-0.017578125,-0.4573170731707317,-0.2134146341463415,0.030487804878048783,0.016,-0.003,0.992,-0.03,0.01,0.02,0.2,-0.98,0.17,1100,1100,1500,1500,0.01,0,2,0,1
352,76822302,993,7,2033,-35,-13,-8,0,0.00341796875,0.99267578125,-0.01708984375,-0.39634146341463417,-0.24390243902439027,0.0,0.016,-0.003,0.992,-0.01,0.0,0.02,0.2,-0.98,0.17,1100,1100,1500,1500,0.01,0,2,0,1
353,76823311,1009,6,2035,-34,-11,-9,-1,0.0029296875,0.99365234375,-0.0166015625,-0.3353658536585366,-0.27439024390243905,-0.030487804878048783,0.016,-0.003,0.993,0.0,-0.01,0.01,0.2,-0.98,0.17,1100,1100,1500,1500,0.01,0,2,0,1
354,76824319,1008,7,2034,-33,-10,-9,-1,0.00341796875,0.9931640625,-0.01611328125,-0.30487804878048785,-0.27439024390243905,-0.030487804878048783,0.016,-0.003,0.993,0.01,-0.03,0.0,0.2,-0.98,0.17,1100,1100,1500,1500,0.02,0,2,0,1
355,76825328,1009,8,2032,-33,-11,-8,-1,0.00390625,0.9921875,-0.01611328125,-0.3353658536585366,-0.24390243902439027,-0.030487804878048783,0.016,-0.003,0.992,0.02,-0.04,0.01,0.2,-0.98,0.17,1100,1100,1500,1500,0.02,0,2,0,1
356,76826336,1008,8,2030,-34,-11,-8,-1,0.00390625,0.9912109375,-0.0166015625,-0.3353658536585366,-0.24390243902439027,-0.030487804878048783,0.016,-0.003,0.992,0.03,-0.05,0.01,0.2,-0.98,0.17,1100,1100,1500,1500,0.02,0,2,0,1
357,76827344,1008,8,2032,-34,-11,-8,-1,0.00390625,0.9921875,-0.0166015625,-0.3353658536585366,-0.24390243902439027,-0.030487804878048783,0.016,-0.003,0.992,0.03,-0.05,0.01,0.2,-0.98,0.17,1100,1100,1500,1500,0.02,0,2,0,1
358,76828353,1009,7,2035,-33,-13,-9,-1,0.00341796875,0.99365234375,-0.01611328125,-0.39634146341463417,-0.27439024390243905,-0.030487804878048783,0.016,-0.003,0.992,0.03,-0.03,0.0,0.2,-0.98,0.17,1100,1100,1500,1500,0.03,0,2,0,1
359,76829361,1008,6,2036,-32,-14,-9,-1,0.0029296875,0.994140625,-0.015625,-0.426829268292683,-0.27439024390243905,-0.030487804878048783,0.016,-0.003,0.992,0.03,-0.01,0.0,0.2,-0.98,0.17,1100,1100,1500,1500,0.04,0,2,0,1
360,76830369,1008,8,2036,-33,-12,-9,-1,0.00390625,0.994140625,-0.01611328125,-0.3658536585365854,-0.27439024390243905,-0.030487804878048783,0.016,-0.003,0.993,0.04,-0.01,0.0,0.2,-0.98,0.17,1100,1100,1500,1500,0.04,0,2,0,1
361,76831378,1009,11,2036,-34,-12,-9,0,0.00537109375,0.994140625,-0.0166015625,-0.3658536585365854,-0.27439024390243905,0.0,0.016,-0.003,0.993,0.03,-0.02,0.0,0.2,-0.98,0.17,1100,1100,1500,1500,0.04,0,2,0,1
362,76832386,1008,10,2034,-35,-12,-10,0,0.0048828125,0.9931640625,-0.01708984375,-0.3658536585365854,-0.30487804878048785,0.0,0.016,-0.003,0.993,0.02,-0.02,-0.01,0.2,-0.98,0.17,1100,1100,1500,1500,0.04,0,2,0,1
363,76833395,1009,9,2032,-36,-13,-10,1,0.00439453125,0.9921875,-0.017578125,-0.39634146341463417,-0.30487804878048785,0.030487804878048783,0.016,-0.004,0.993,0.01,-0.01,-0.02,0.2,-0.98,0.17,1100,1100,1500,1500,0.03,0,2,0,1
364,76834403,1008,10,2033,-38,-14,-8,2,0.0048828125,0.99267578125,-0.0185546875,-0.426829268292683,-0.24390243902439027,0.06097560975609757,0.016,-0.004,0.993,0.0,0.0,0.0,0.2,-0.98,0.17,1100,1100,1500,1500,0.03,0,2,0,1
365,76835411,1008,10,2034,-39,-14,-7,0,0.0048828125,0.9931640625,-0.01904296875,-0.426829268292683,-0.2134146341463415,0.0,0.017,-0.004,0.993,0.0,0.01,0.01,0.2,-0.98,0.17,1100,1100,1500,1500,0.04,0,2,0,1
366,76836420,1009,8,2032,-39,-12,-7,0,0.00390625,0.9921875,-0.01904296875,-0.3658536585365854,-0.2134146341463415,0.0,0.017,-0.004,0.992,0.0,0.0,0.02,0.2,-0.98,0.17,1100,1100,1500,1500,0.04,0,2,0,1
367,76837428,1008,6,2032,-38,-10,-8,0,0.0029296875,0.9921875,-0.0185546875,-0.30487804878048785,-0.24390243902439027,0.0,0.017,-0.004,0.992,0.0,-0.03,0.02,0.2,-0.98,0.17,1100,1100,1500,1500,0.04,0,2,0,1
368,76838436,1008,7,2034,-38,-12,-9,-1,0.00341796875,0.9931640625,-0.0185546875,-0.3658536585365854,-0.27439024390243905,-0.030487804878048783,0.017,-0.003,0.992,0.01,-0.03,0.01,0.2,-0.98,0.17,1100,1100,1500,1500,0.04,0,2,0,1
369,76839445,1009,9,2035,-39,-15,-10,-2,0.00439453125,0.99365234375,-0.01904296875,-0.4573170731707317,-0.30487804878048785,-0.06097560975609757,0.018,-0.004,0.992,0.03,0.0,0.0,0.2,-0.98,0.17,1100,1100,1500,1500,0.05,0,2,0,1
370,76840453,1008,10,2035,-37,-15,-10,-2,0.0048828125,0.99365234375,-0.01806640625,-0.4573170731707317,-0.30487804878048785,-0.06097560975609757,0.018,-0.004,0.993,0.04,0.02,-0.01,0.2,-0.98,0.17,1100,1100,1500,1500,0.06,0,2,0,1
371,76841462,1009,9,2037,-35,-12,-8,-2,0.00439453125,0.99462890625,-0.01708984375,-0.3658536585365854,-0.24390243902439027,-0.06097560975609757,0.017,-0.004,0.993,0.05,0.0,0.0,0.2,-0.98,0.17,1100,1100,1500,1500,0.05,0,2,0,1
372,76842470,1008,8,2038,-34,-9,-7,-1,0.00390625,0.9951171875,-0.0166015625,-0.27439024390243905,-0.2134146341463415,-0.030487804878048783,0.017,-0.004,0.993,0.05,-0.03,0.01,0.2,-0.98,0.17,1100,1100,1500,1500,0.04,0,2,0,1
373,76843478,1008,8,2036,-34,-10,-7,0,0.00390625,0.994140625,-0.0166015625,-0.30487804878048785,-0.2134146341463415,0.0,0.017,-0.004,0.993,0.03,-0.05,0.02,0.2,-0.98,0.17,1100,1100,1500,1500,0.03,0,2,0,1
374,76844487,1009,8,2034,-33,-12,-8,0,0.00390625,0.9931640625,-0.01611328125,-0.3658536585365854,-0.24390243902439027,0.0,0.017,-0.004,0.993,0.02,-0.04,0.02,0.2,-0.98,0.17,1100,1100,1500,1500,0.02,0,2,0,1
375,76845495,1008,8,2031,-32,-12,-9,0,0.00390625,0.99169921875,-0.015625,-0.3658536585365854,-0.27439024390243905,0.0,0.017,-0.004,0.993,0.02,-0.03,0.01,0.2,-0.98,0.17,1100,1100,1500,1500,0.02,0,2,0,1
376,76846503,1008,7,2031,-33,-12,-9,-1,0.00341796875,0.99169921875,-0.01611328125,-0.3658536585365854,-0.27439024390243905,-0.030487804878048783,0.016,-0.003,0.993,0.03,-0.03,0.0,0.2,-0.98,0.17,1100,1100,1500,1500,0.02,0,2,0,1
377,76847512,1009,8,2032,-33,-13,-9,-1,0.00390625,0.9921875,-0.01611328125,-0.39634146341463417,-0.27439024390243905,-0.030487804878048783,0.016,-0.003,0.992,0.03,-0.02,0.0,0.2,-0.98,0.17,1100,1100,1500,1500,0.02,0,2,0,1
378,76848520,1008,9,2034,-34,-14,-9,-1,0.00439453125,0.9931640625,-0.0166015625,-0.426829268292683,-0.27439024390243905,-0.030487804878048783,0.016,-0.004,0.992,0.03,0.0,0.0,0.2,-0.98,0.17,1100,1100,1500,1500,0.03,0,2,0,1
379,76849529,1009,10,2035,-35,-14,-10,-1,0.0048828125,0.99365234375,-0.01708984375,-0.426829268292683,-0.30487804878048785,-0.030487804878048783,0.016,-0.004,0.993,0.03,0.0,-0.01,0.2,-0.98,0.17,1100,1100,1500,1500,0.03,0,2,0,1
380,76850537,1008,8,2035,-35,-14,-10,-2,0.00390625,0.99365234375,-0.01708984375,-0.426829268292683,-0.30487804878048785,-0.06097560975609757,0.016,-0.004,0.993,0.05,0.01,-0.02,0.2,-0.98,0.17,1100,1100,1500,1500,0.03,0,2,0,1
381,76851545,1008,6,2034,-33,-15,-9,-2,0.0029296875,0.9931640625,-0.01611328125,-0.4573170731707317,-0.27439024390243905,-0.06097560975609757,0.016,-0.003,0.993,0.05,0.03,-0.01,0.2,-0.98,0.17,1100,1100,1500,1500,0.03,0,2,0,1
382,76852554,1009,6,2033,-33,-14,-10,-1,0.0029296875,0.99267578125,-0.01611328125,-0.426829268292683,-0.30487804878048785,-0.030487804878048783,0.016,-0.003,0.993,0.05,0.03,-0.02,0.2,-0.98,0.17,1100,1100,1500,1500,0.03,0,2,0,1
383,76853562,1008,7,2033,-35,-12,-9,0,0.00341796875,0.99267578125,-0.01708984375,-0.3658536585365854,-0.27439024390243905,0.0,0.016,-0.003,0.993,0.03,0.01,-0.01,0.2,-0.98,0.17,1100,1100,1500,1500,0.02,0,2,0,1
384,76854570,1008,7,2034,-37,-12,-9,-1,0.00341796875,0.9931640625,-0.01806640625,-0.3658536585365854,-0.27439024390243905,-0.030487804878048783,0.016,-0.003,0.993,0.04,0.0,-0.01,0.2,-0.98,0.17,1100,1100,1500,1500,0.01,0,2,0,1
385,76855579,1009,7,2035,-38,-13,-9,-2,0.00341796875,0.99365234375,-0.0185546875,-0.39634146341463417,-0.27439024390243905,-0.06097560975609757,0.017,-0.003,0.993,0.05,0.0,-0.01,0.2,-0.98,0.17,1100,1100,1500,1500,0.0,0,2,0,1
386,76856587,1008,8,2034,-37,-13,-9,-1,0.00390625,0.9931640625,-0.01806640625,-0.39634146341463417,-0.27439024390243905,-0.030487804878048783,0.017,-0.003,0.993,0.04,0.0,-0.01,0.2,-0.98,0.17,1100,1100,1500,1500,0.01,0,2,0,1
387,76857596,1009,8,2035,-37,-12,-8,0,0.00390625,0.99365234375,-0.01806640625,-0.3658536585365854,-0.24390243902439027,0.0,0.017,-0.003,0.993,0.03,0.0,0.0,0.2,-0.98,0.17,1100,1100,1500,1500,0.01,0,2,0,1
388,76858604,1008,7,2036,-36,-12,-9,0,0.00341796875,0.994140625,-0.017578125,-0.3658536585365854,-0.27439024390243905,0.0,0.017,-0.003,0.993,0.02,-0.01,0.0,0.2,-0.98,0.17,1100,1100,1500,1500,0.01,0,2,0,1
389,76859612,1008,6,2033,-37,-12,-9,0,0.0029296875,0.99267578125,-0.01806640625,-0.3658536585365854,-0.27439024390243905,0.0,0.017,-0.003,0.993,0.02,-0.01,0.0,0.2,-0.98,0.17,1100,1100,1500,1500,0.02,0,2,0,1
390,76860621,1009,5,2031,-37,-13,-9,0,0.00244140625,0.99169921875,-0.01806640625,-0.39634146341463417,-0.27439024390243905,0.0,0.017,-0.003,0.993,0.01,-0.01,0.0,0.2,-0.98,0.17,1100,1100,1500,1500,0.03,0,2,0,1
391,76861629,1008,5,2033,-37,-12,-10,1,0.00244140625,0.99267578125,-0.01806640625,-0.3658536585365854,-0.30487804878048785,0.030487804878048783,0.017,-0.003,0.992,0.0,-0.01,-0.01,0.2,-0.98,0.17,1100,1100,1500,1500,0.03,0,2,0,1
392,76862637,1008,5,2034,-37,-12,-11,1,0.00244140625,0.9931640625,-0.01806640625,-0.3658536585365854,-0.3353658536585366,0.030487804878048783,0.017,-0.003,0.992,0.0,-0.02,-0.03,0.2,-0.98,0.17,1100,1100,1500,1500,0.04,0,2,0,1
393,76863646,1009,5,2034,-35,-12,-10,1,0.00244140625,0.9931640625,-0.01708984375,-0.3658536585365854,-0.30487804878048785,0.030487804878048783,0.017,-0.002,0.993,0.0,-0.02,-0.03,0.2,-0.98,0.17,1100,1100,1500,1500,0.04,0,2,0,1
394,76864654,1008,6,2031,-36,-12,-9,0,0.0029296875,0.99169921875,-0.017578125,-0.3658536585365854,-0.27439024390243905,0.0,0.017,-0.002,0.992,0.0,-0.02,-0.02,0.2,-0.98,0.17,1100,1100,1500,1500,0.04,0,2,0,1
395,76865663,1009,7,2030,-37,-13,-9,0,0.00341796875,0.9912109375,-0.01806640625,-0.39634146341463417,-0.27439024390243905,0.0,0.017,-0.003,0.992,0.0,-0.01,-0.02,0.2,-0.98,0.17,1100,1100,1500,1500,0.04,0,2,0,1
396,76866671,1008,7,2030,-38,-14,-9,0,0.00341796875,0.9912109375,-0.0185546875,-0.426829268292683,-0.27439024390243905,0.0,0.017,-0.003,0.992,0.0,0.0,-0.01,0.2,-0.98,0.17,1100,1100,1500,1500,0.04,0,2,0,1
397,76867679,1008,6,2031,-37,-14,-8,0,0.0029296875,0.99169921875,-0.01806640625,-0.426829268292683,-0.24390243902439027,0.0,0.017,-0.003,0.992,0.0,0.01,0.0,0.2,-0.98,0.17,1100,1100,1500,1500,0.05,0,2,0,1
398,76868688,1009,5,2031,-36,-13,-9,1,0.00244140625,0.99169921875,-0.017578125,-0.39634146341463417,-0.27439024390243905,0.030487804878048783,0.017,-0.002,0.992,0.0,0.0,0.0,0.2,-0.98,0.17,1100,1100,1500,1500,0.05,0,2,0,1
399,76869696,1008,7,2032,-35,-12,-9,1,0.00341796875,0.9921875,-0.01708984375,-0.3658536585365854,-0.27439024390243905,0.030487804878048783,0.017,-0.003,0.992,0.0,0.0,0.0,0.2,-0.98,0.17,1100,1100,1500,1500,0.04,0,2,0,1
400,76870704,1008,8,2033,-35,-12,-10,2,0.00390625,0.99267578125,-0.01708984375,-0.3658536585365854,-0.30487804878048785,0.06097560975609757,0.017,-0.003,0.992,-0.02,-0.01,-0.01,0.2,-0.98,0.17,1100,1100,1500,1500,0.03,0,2,0,1
401,76871713,1009,8,2034,-34,-12,-10,2,0.00390625,0.9931640625,-0.0166015625,-0.3658536585365854,-0.30487804878048785,0.06097560975609757,0.017,-0.003,0.992,-0.03,-0.01,-0.02,0.2,-0.98,0.17,1100,1100,1500,1500,0.02,0,2,0,1
402,76872721,1008,7,2035,-33,-12,-9,3,0.00341796875,0.99365234375,-0.01611328125,-0.3658536585365854,-0.27439024390243905,0.09146341463414635,0.017,-0.003,0.992,-0.04,-0.02,-0.01,0.2,-0.98,0.17,1100,1100,1500,1500,0.01,0,2,0,1
403,76873730,1009,6,2036,-31,-10,-9,2,0.0029296875,0.994140625,-0.01513671875,-0.30487804878048785,-0.27439024390243905,0.06097560975609757,0.016,-0.003,0.992,-0.04,-0.04,-0.01,0.2,-0.98,0.17,1100,1100,1500,1500,0.02,0,2,0,1
404,76874738,1008,5,2036,-30,-10,-8,1,0.00244140625,0.994140625,-0.0146484375,-0.30487804878048785,-0.24390243902439027,0.030487804878048783,0.016,-0.003,0.993,-0.03,-0.05,0.0,0.2,-0.98,0.17,1100,1100,1500,1500,0.04,0,2,0,1
405,76875745,1007,6,2035,-32,-10,-6,1,0.0029296875,0.99365234375,-0.015625,-0.30487804878048785,-0.1829268292682927,0.030487804878048783,0.016,-0.003,0.993,-0.03,-0.06,0.02,0.2,-0.99,0.17,1100,1100,1500,1500,0.05,0,2,0,1
406,76876753,1008,7,2034,-34,-12,-6,0,0.00341796875,0.9931640625,-0.0166015625,-0.3658536585365854,-0.1829268292682927,0.0,0.016,-0.003,0.993,-0.01,-0.05,0.04,0.2,-0.99,0.17,1100,1100,1500,1500,0.04,0,2,0,1
407,76877762,1009,8,2033,-36,-13,-7,0,0.00390625,0.99267578125,-0.017578125,-0.39634146341463417,-0.2134146341463415,0.0,0.016,-0.003,0.993,0.0,-0.03,0.04,0.2,-0.99,0.17,1100,1100,1500,1500,0.03,0,2,0,1
408,76878770,1008,8,2034,-35,-13,-8,0,0.00390625,0.9931640625,-0.01708984375,-0.39634146341463417,-0.24390243902439027,0.0,0.016,-0.003,0.993,0.0,-0.02,0.03,0.2,-0.99,0.17,1100,1100,1500,1500,0.02,0,2,0,1
409,76879779,1009,8,2036,-34,-12,-9,0,0.00390625,0.994140625,-0.0166015625,-0.3658536585365854,-0.27439024390243905,0.0,0.016,-0.003,0.993,0.0,-0.02,0.02,0.2,-0.99,0.17,1100,1100,1500,1500,0.02,0,2,0,1
410,76880787,1008,7,2036,-34,-12,-10,0,0.00341796875,0.994140625,-0.0166015625,-0.3658536585365854,-0.30487804878048785,0.0,0.016,-0.003,0.993,0.0,-0.02,0.0,0.2,-0.99,0.17,1100,1100,1500,1500,0.02,0,2,0,1
411,76881795,1008,7,2034,-35,-13,-10,0,0.00341796875,0.9931640625,-0.01708984375,-0.39634146341463417,-0.30487804878048785,0.0,0.016,-0.003,0.993,0.0,-0.01,-0.01,0.2,-0.99,0.17,1100,1100,1500,1500,0.02,0,2,0,1
412,76882804,1009,6,2033,-34,-13,-10,0,0.0029296875,0.99267578125,-0.0166015625,-0.39634146341463417,-0.30487804878048785,0.0,0.016,-0.003,0.993,0.0,-0.01,-0.02,0.2,-0.99,0.17,1100,1100,1500,1500,0.02,0,2,0,1
413,76883812,1008,6,2032,-34,-12,-10,1,0.0029296875,0.9921875,-0.0166015625,-0.3658536585365854,-0.30487804878048785,0.030487804878048783,0.016,-0.003,0.993,0.0,-0.01,-0.02,0.2,-0.99,0.17,1100,1100,1500,1500,0.03,0,2,0,1
414,76884820,1008,7,2032,-35,-11,-9,2,0.00341796875,0.9921875,-0.01708984375,-0.3353658536585366,-0.27439024390243905,0.06097560975609757,0.016,-0.003,0.992,-0.01,-0.03,-0.02,0.2,-0.99,0.17,1100,1100,1500,1500,0.02,0,2,0,1
415,76885829,1009,7,2033,-34,-12,-8,1,0.00341796875,0.99267578125,-0.0166015625,-0.3658536585365854,-0.24390243902439027,0.030487804878048783,0.016,-0.003,0.992,-0.01,-0.02,0.0,0.2,-0.99,0.17,1100,1100,1500,1500,0.02,0,2,0,1
416,76886837,1008,7,2035,-34,-11,-8,0,0.00341796875,0.99365234375,-0.0166015625,-0.3353658536585366,-0.24390243902439027,0.0,0.016,-0.003,0.993,0.0,-0.03,0.0,0.2,-0.99,0.17,1100,1100,1500,1500,0.02,0,2,0,1
417,76887846,1009,7,2036,-33,-12,-9,-1,0.00341796875,0.994140625,-0.01611328125,-0.3658536585365854,-0.27439024390243905,-0.030487804878048783,0.016,-0.003,0.993,0.0,-0.03,0.0,0.2,-0.99,0.17,1100,1100,1500,1500,0.03,0,2,0,1
418,76888854,1008,7,2036,-32,-14,-9,-1,0.00341796875,0.994140625,-0.015625,-0.426829268292683,-0.27439024390243905,-0.030487804878048783,0.016,-0.003,0.993,0.02,-0.01,0.0,0.2,-0.99,0.17,1100,1100,1500,1500,0.04,0,2,0,1
419,76889862,1008,7,2036,-32,-15,-9,-1,0.00341796875,0.994140625,-0.015625,-0.4573170731707317,-0.27439024390243905,-0.030487804878048783,0.016,-0.003,0.993,0.02,0.01,0.0,0.2,-0.99,0.17,1100,1100,1500,1500,0.04,0,2,0,1
420,76890871,1009,5,2035,-32,-14,-9,0,0.00244140625,0.99365234375,-0.015625,-0.426829268292683,-0.27439024390243905,0.0,0.016,-0.003,0.993,0.02,0.01,0.0,0.2,-0.99,0.17,1100,1100,1500,1500,0.05,0,2,0,1
421,76891879,1008,5,2034,-31,-13,-9,1,0.00244140625,0.9931640625,-0.01513671875,-0.39634146341463417,-0.27439024390243905,0.030487804878048783,0.016,-0.003,0.993,0.0,0.01,0.0,0.2,-0.99,0.17,1100,1100,1500,1500,0.07,0,2,0,1
422,76892887,1008,6,2033,-33,-13,-8,0,0.0029296875,0.99267578125,-0.01611328125,-0.39634146341463417,-0.24390243902439027,0.0,0.016,-0.003,0.993,0.0,0.0,0.0,0.2,-0.99,0.17,1100,1100,1500,1500,0.07,0,2,0,1
423,76893896,1009,6,2032,-34,-12,-8,0,0.0029296875,0.9921875,-0.0166015625,-0.3658536585365854,-0.24390243902439027,0.0,0.016,-0.003,0.993,0.01,0.0,0.0,0.2,-0.99,0.17,1100,1100,1500,1500,0.06,0,2,0,1
424,76894904,1008,5,2033,-34,-12,-8,0,0.00244140625,0.99267578125,-0.0166015625,-0.3658536585365854,-0.24390243902439027,0.0,0.016,-0.002,0.993,0.01,-0.01,0.01,0.2,-0.99,0.17,1100,1100,1500,1500,0.06,0,2,0,1
425,76895913,1009,5,2034,-36,-12,-7,-1,0.00244140625,0.9931640625,-0.017578125,-0.3658536585365854,-0.2134146341463415,-0.030487804878048783,0.016,-0.002,0.993,0.02,-0.01,0.02,0.2,-0.99,0.17,1100,1100,1500,1500,0.05,0,2,0,1
426,76896921,1008,7,2034,-36,-14,-8,-1,0.00341796875,0.9931640625,-0.017578125,-0.426829268292683,-0.24390243902439027,-0.030487804878048783,0.016,-0.002,0.993,0.02,0.0,0.02,0.2,-0.98,0.17,1100,1100,1500,1500,0.04,0,2,0,1
427,76897929,1008,9,2035,-36,-15,-9,0,0.00439453125,0.99365234375,-0.017578125,-0.4573170731707317,-0.27439024390243905,0.0,0.016,-0.003,0.993,0.02,0.02,0.01,0.2,-0.98,0.17,1100,1100,1500,1500,0.03,0,2,0,1
428,76898938,1009,9,2035,-36,-15,-9,0,0.00439453125,0.99365234375,-0.017578125,-0.4573170731707317,-0.27439024390243905,0.0,0.016,-0.003,0.993,0.01,0.03,0.0,0.2,-0.98,0.17,1100,1100,1500,1500,0.01,0,2,0,1
429,76899946,1008,8,2035,-36,-15,-8,1,0.00390625,0.99365234375,-0.017578125,-0.4573170731707317,-0.24390243902439027,0.030487804878048783,0.017,-0.003,0.993,0.0,0.04,0.01,0.2,-0.98,0.17,1100,1100,1500,1500,0.01,0,2,0,1
430,76900954,1008,6,2034,-36,-15,-8,0,0.0029296875,0.9931640625,-0.017578125,-0.4573170731707317,-0.24390243902439027,0.0,0.017,-0.003,0.993,0.0,0.05,0.01,0.2,-0.98,0.17,1100,1100,1500,1500,0.01,0,2,0,1
431,76901963,1009,6,2034,-35,-14,-8,0,0.0029296875,0.9931640625,-0.01708984375,-0.426829268292683,-0.24390243902439027,0.0,0.017,-0.003,0.993,0.0,0.04,0.01,0.2,-0.98,0.17,1100,1100,1500,1500,0.01,0,2,0,1
432,76902971,1008,8,2034,-34,-12,-8,-1,0.00390625,0.9931640625,-0.0166015625,-0.3658536585365854,-0.24390243902439027,-0.030487804878048783,0.017,-0.003,0.993,0.02,0.02,0.01,0.2,-0.98,0.17,1100,1100,1500,1500,0.01,0,2,0,1
433,76903978,1007,11,2034,-35,-11,-8,-2,0.00537109375,0.9931640625,-0.01708984375,-0.3353658536585366,-0.24390243902439027,-0.06097560975609757,0.017,-0.003,0.993,0.03,0.0,0.02,0.2,-0.98,0.17,1100,1100,1500,1500,0.0,0,2,0,1
434,76904986,1008,11,2033,-35,-11,-8,-1,0.00537109375,0.99267578125,-0.01708984375,-0.3353658536585366,-0.24390243902439027,-0.030487804878048783,0.017,-0.003,0.993,0.03,-0.02,0.02,0.2,-0.98,0.17,1100,1100,1500,1500,0.02,0,2,0,1
435,76905995,1009,9,2033,-34,-12,-7,0,0.00439453125,0.99267578125,-0.0166015625,-0.3658536585365854,-0.2134146341463415,0.0,0.016,-0.004,0.993,0.03,-0.02,0.03,0.2,-0.98,0.17,1100,1100,1500,1500,0.02,0,2,0,1
436,76907001,1006,8,2034,-34,-12,-7,1,0.00390625,0.9931640625,-0.0166015625,-0.3658536585365854,-0.2134146341463415,0.030487804878048783,0.016,-0.004,0.993,0.01,-0.02,0.03,0.2,-0.98,0.17,1100,1100,1500,1500,0.02,0,2,0,1
437,76908010,1009,7,2033,-33,-13,-8,1,0.00341796875,0.99267578125,-0.01611328125,-0.39634146341463417,-0.24390243902439027,0.030487804878048783,0.016,-0.003,0.993,0.0,-0.01,0.03,0.2,-0.98,0.17,1100,1100,1500,1500,0.02,0,2,0,1
438,76909018,1008,7,2033,-33,-13,-9,0,0.00341796875,0.99267578125,-0.01611328125,-0.39634146341463417,-0.27439024390243905,0.0,0.016,-0.003,0.992,0.0,-0.01,0.01,0.2,-0.98,0.17,1100,1100,1500,1500,0.03,0,2,0,1
439,76910026,1008,8,2034,-33,-12,-8,0,0.00390625,0.9931640625,-0.01611328125,-0.3658536585365854,-0.24390243902439027,0.0,0.016,-0.003,0.993,0.0,-0.01,0.02,0.2,-0.98,0.17,1100,1100,1500,1500,0.03,0,2,0,1
440,76911035,1009,9,2035,-32,-11,-8,1,0.00439453125,0.99365234375,-0.015625,-0.3353658536585366,-0.24390243902439027,0.030487804878048783,0.016,-0.003,0.993,0.0,-0.03,0.02,0.2,-0.98,0.17,1100,1100,1500,1500,0.04,0,2,0,1
441,76912043,1008,9,2036,-33,-13,-9,1,0.00439453125,0.994140625,-0.01611328125,-0.39634146341463417,-0.27439024390243905,0.030487804878048783,0.016,-0.004,0.993,0.0,-0.01,0.01,0.2,-0.98,0.17,1100,1100,1500,1500,0.05,0,2,0,1
442,76913051,1008,8,2036,-34,-14,-9,0,0.00390625,0.994140625,-0.0166015625,-0.426829268292683,-0.27439024390243905,0.0,0.016,-0.003,0.993,0.0,0.0,0.0,0.2,-0.98,0.17,1100,1100,1500,1500,0.04,0,2,0,1
443,76914060,1009,7,2036,-35,-14,-9,0,0.00341796875,0.994140625,-0.01708984375,-0.426829268292683,-0.27439024390243905,0.0,0.016,-0.003,0.993,0.0,0.0,0.0,0.2,-0.98,0.17,1100,1100,1500,1500,0.04,0,2,0,1
444,76915068,1008,7,2036,-36,-14,-9,0,0.00341796875,0.994140625,-0.017578125,-0.426829268292683,-0.27439024390243905,0.0,0.016,-0.003,0.993,0.0,0.01,0.0,0.2,-0.98,0.17,1100,1100,1500,1500,0.03,0,2,0,1
445,76916077,1009,8,2037,-36,-13,-9,-1,0.00390625,0.99462890625,-0.017578125,-0.39634146341463417,-0.27439024390243905,-0.030487804878048783,0.016,-0.003,0.993,0.01,0.01,0.0,0.2,-0.98,0.17,1100,1100,1500,1500,0.02,0,2,0,1
446,76917085,1008,9,2037,-35,-14,-8,-2,0.00439453125,0.99462890625,-0.01708984375,-0.426829268292683,-0.24390243902439027,-0.06097560975609757,0.016,-0.003,0.993,0.03,0.01,0.0,0.2,-0.98,0.17,1100,1100,1500,1500,0.02,0,2,0,1
447,76918093,1008,8,2036,-37,-14,-9,-2,0.00390625,0.994140625,-0.01806640625,-0.426829268292683,-0.27439024390243905,-0.06097560975609757,0.017,-0.003,0.993,0.04,0.02,0.0,0.2,-0.98,0.17,1100,1100,1500,1500,0.01,0,2,0,1
448,76919102,1009,7,2036,-38,-13,-9,-2,0.00341796875,0.994140625,-0.0185546875,-0.39634146341463417,-0.27439024390243905,-0.06097560975609757,0.017,-0.003,0.993,0.05,0.01,0.0,0.2,-0.98,0.17,1100,1100,1500,1500,0.01,0,2,0,1
449,76920110,1008,7,2037,-37,-12,-8,-1,0.00341796875,0.99462890625,-0.01806640625,-0.3658536585365854,-0.24390243902439027,-0.030487804878048783,0.017,-0.003,0.994,0.05,0.0,0.0,0.2,-0.98,0.17,1100,1100,1500,1500,0.01,0,2,0,1
450,76921119,1009,9,2038,-34,-12,-8,-1,0.00439453125,0.9951171875,-0.0166015625,-0.3658536585365854,-0.24390243902439027,-0.030487804878048783,0.017,-0.003,0.994,0.04,0.0,0.01,0.2,-0.98,0.17,1100,1100,1500,1500,0.01,0,2,0,1
451,76922127,1008,11,2038,-33,-13,-9,-1,0.00537109375,0.9951171875,-0.01611328125,-0.39634146341463417,-0.27439024390243905,-0.030487804878048783,0.017,-0.004,0.994,0.04,0.0,0.0,0.2,-0.98,0.17,1100,1100,1500,1500,0.03,0,2,0,1
452,76923135,1008,10,2036,-34,-15,-9,-1,0.0048828125,0.994140625,-0.0166015625,-0.4573170731707317,-0.27439024390243905,-0.030487804878048783,0.017,-0.004,0.994,0.04,0.01,0.0,0.2,-0.98,0.17,1100,1100,1500,1500,0.03,0,2,0,1
453,76924144,1009,8,2035,-35,-17,-8,-2,0.00390625,0.99365234375,-0.01708984375,-0.5182926829268293,-0.24390243902439027,-0.06097560975609757,0.017,-0.004,0.994,0.05,0.05,0.0,0.2,-0.98,0.17,1100,1100,1500,1500,0.03,0,2,0,1
454,76925152,1008,7,2035,-34,-16,-8,-2,0.00341796875,0.99365234375,-0.0166015625,-0.48780487804878053,-0.24390243902439027,-0.06097560975609757,0.016,-0.004,0.994,0.06,0.06,0.01,0.2,-0.98,0.17,1100,1100,1500,1500,0.02,0,2,0,1
455,76926160,1008,7,2036,-34,-15,-8,-3,0.00341796875,0.994140625,-0.0166015625,-0.4573170731707317,-0.24390243902439027,-0.09146341463414635,0.016,-0.003,0.994,0.07,0.06,0.01,0.2,-0.98,0.17,1100,1100,1500,1500,0.02,0,2,0,1
456,76927169,1009,7,2034,-34,-15,-9,-2,0.00341796875,0.9931640625,-0.0166015625,-0.4573170731707317,-0.27439024390243905,-0.06097560975609757,0.016,-0.003,0.993,0.07,0.06,0.0,0.2,-0.98,0.17,1100,1100,1500,1500,0.02,0,2,0,1
457,76928179,1010,7,2033,-35,-15,-10,0,0.00341796875,0.99267578125,-0.01708984375,-0.4573170731707317,-0.30487804878048785,0.0,0.016,-0.003,0.993,0.05,0.06,0.0,0.2,-0.98,0.17,1100,1100,1500,1500,0.01,0,2,0,1
458,76929185,1006,7,2034,-35,-14,-10,0,0.00341796875,0.9931640625,-0.01708984375,-0.426829268292683,-0.30487804878048785,0.0,0.016,-0.003,0.993,0.03,0.05,-0.01,0.2,-0.98,0.17,1100,1100,1500,1500,0.01,0,2,0,1
459,76930194,1009,7,2035,-34,-13,-9,1,0.00341796875,0.99365234375,-0.0166015625,-0.39634146341463417,-0.27439024390243905,0.030487804878048783,0.016,-0.003,0.993,0.02,0.03,-0.01,0.2,-0.98,0.17,1100,1100,1500,1500,0.01,0,2,0,1
460,76931202,1008,6,2034,-34,-15,-9,0,0.0029296875,0.9931640625,-0.0166015625,-0.4573170731707317,-0.27439024390243905,0.0,0.016,-0.003,0.993,0.01,0.04,-0.01,0.2,-0.98,0.17,1100,1100,1500,1500,0.01,0,2,0,1
461,76932211,1009,7,2033,-34,-17,-8,0,0.00341796875,0.99267578125,-0.0166015625,-0.5182926829268293,-0.24390243902439027,0.0,0.016,-0.003,0.993,0.01,0.07,0.0,0.2,-0.98,0.17,1100,1100,1500,1500,0.02,0,2,0,1
462,76933219,1008,9,2033,-34,-16,-8,0,0.00439453125,0.99267578125,-0.0166015625,-0.48780487804878053,-0.24390243902439027,0.0,0.016,-0.003,0.993,0.01,0.07,0.0,0.2,-0.98,0.17,1100,1100,1500,1500,0.02,0,2,0,1
463,76934227,1008,10,2034,-35,-13,-8,0,0.0048828125,0.9931640625,-0.01708984375,-0.39634146341463417,-0.24390243902439027,0.0,0.016,-0.003,0.993,0.01,0.05,0.01,0.2,-0.98,0.17,1100,1100,1500,1500,0.02,0,2,0,1
464,76935236,1009,9,2037,-35,-15,-8,-1,0.00439453125,0.99462890625,-0.01708984375,-0.4573170731707317,-0.24390243902439027,-0.030487804878048783,0.016,-0.003,0.993,0.02,0.05,0.01,0.2,-0.98,0.17,1100,1100,1500,1500,0.02,0,2,0,1
465,76936244,1008,8,2037,-34,-17,-9,-1,0.00390625,0.99462890625,-0.0166015625,-0.5182926829268293,-0.27439024390243905,-0.030487804878048783,0.016,-0.003,0.993,0.02,0.07,0.0,0.2,-0.98,0.17,1100,1100,1500,1500,0.02,0,2,0,1
466,76937252,1008,9,2036,-35,-15,-9,0,0.00439453125,0.994140625,-0.01708984375,-0.4573170731707317,-0.27439024390243905,0.0,0.016,-0.004,0.993,0.02,0.07,0.0,0.2,-0.98,0.17,1100,1100,1500,1500,0.02,0,2,0,1
467,76938261,1009,9,2036,-35,-14,-7,-1,0.00439453125,0.994140625,-0.01708984375,-0.426829268292683,-0.2134146341463415,-0.030487804878048783,0.016,-0.004,0.993,0.03,0.05,0.01,0.2,-0.98,0.17,1100,1100,1500,1500,0.03,0,2,0,1
468,76939269,1008,6,2036,-34,-13,-7,-1,0.0029296875,0.994140625,-0.0166015625,-0.39634146341463417,-0.2134146341463415,-0.030487804878048783,0.016,-0.003,0.993,0.03,0.04,0.03,0.2,-0.98,0.17,1100,1100,1500,1500,0.02,0,2,0,1
469,76940278,1009,5,2035,-33,-13,-7,0,0.00244140625,0.99365234375,-0.01611328125,-0.39634146341463417,-0.2134146341463415,0.0,0.016,-0.003,0.993,0.02,0.02,0.03,0.2,-0.98,0.17,1100,1100,1500,1500,0.02,0,2,0,1
470,76941286,1008,7,2035,-32,-15,-9,1,0.00341796875,0.99365234375,-0.015625,-0.4573170731707317,-0.27439024390243905,0.030487804878048783,0.016,-0.003,0.993,0.01,0.03,0.02,0.2,-0.98,0.17,1100,1100,1500,1500,0.03,0,2,0,1
471,76942294,1008,7,2035,-32,-17,-9,2,0.00341796875,0.99365234375,-0.015625,-0.5182926829268293,-0.27439024390243905,0.06097560975609757,0.016,-0.003,0.993,0.0,0.06,0.01,0.2,-0.98,0.17,1100,1100,1500,1500,0.04,0,2,0,1
472,76943303,1009,6,2036,-33,-17,-8,0,0.0029296875,0.994140625,-0.01611328125,-0.5182926829268293,-0.24390243902439027,0.0,0.016,-0.003,0.993,0.0,0.08,0.01,0.2,-0.98,0.17,1100,1100,1500,1500,0.04,0,2,0,1
473,76944311,1008,7,2034,-33,-16,-8,0,0.00341796875,0.9931640625,-0.01611328125,-0.48780487804878053,-0.24390243902439027,0.0,0.016,-0.003,0.993,0.0,0.08,0.01,0.2,-0.98,0.17,1100,1100,1500,1500,0.04,0,2,0,1
474,76945319,1008,10,2033,-34,-14,-9,1,0.0048828125,0.99267578125,-0.0166015625,-0.426829268292683,-0.27439024390243905,0.030487804878048783,0.016,-0.003,0.993,0.0,0.07,0.0,0.2,-0.98,0.17,1100,1100,1500,1500,0.04,0,2,0,1
475,76946328,1009,9,2034,-35,-13,-10,0,0.00439453125,0.9931640625,-0.01708984375,-0.39634146341463417,-0.30487804878048785,0.0,0.016,-0.003,0.993,0.0,0.04,0.0,0.2,-0.98,0.17,1100,1100,1500,1500,0.03,0,2,0,1
476,76947336,1008,7,2035,-35,-13,-9,-1,0.00341796875,0.99365234375,-0.01708984375,-0.39634146341463417,-0.27439024390243905,-0.030487804878048783,0.016,-0.003,0.993,0.01,0.03,0.0,0.2,-0.98,0.17,1100,1100,1500,1500,0.03,0,2,0,1
477,76948345,1009,6,2035,-34,-13,-9,0,0.0029296875,0.99365234375,-0.0166015625,-0.39634146341463417,-0.27439024390243905,0.0,0.016,-0.003,0.993,0.01,0.02,0.0,0.2,-0.98,0.17,1100,1100,1500,1500,0.03,0,2,0,1
478,76949353,1008,7,2033,-35,-11,-10,1,0.00341796875,0.99267578125,-0.01708984375,-0.3353658536585366,-0.30487804878048785,0.030487804878048783,0.016,-0.003,0.993,0.0,0.0,-0.01,0.2,-0.98,0.17,1100,1100,1500,1500,0.02,0,2,0,1
479,76950361,1008,8,2033,-35,-9,-10,1,0.00390625,0.99267578125,-0.01708984375,-0.27439024390243905,-0.30487804878048785,0.030487804878048783,0.016,-0.003,0.993,0.0,-0.04,-0.02,0.2,-0.98,0.17,1100,1100,1500,1500,0.02,0,2,0,1
480,76951370,1009,7,2034,-34,-10,-11,1,0.00341796875,0.9931640625,-0.0166015625,-0.30487804878048785,-0.3353658536585366,0.030487804878048783,0.016,-0.003,0.993,0.0,-0.05,-0.03,0.2,-0.98,0.17,1100,1100,1500,1500,0.02,0,2,0,1
481,76952378,1008,8,2034,-34,-11,-10,1,0.00390625,0.9931640625,-0.0166015625,-0.3353658536585366,-0.30487804878048785,0.030487804878048783,0.016,-0.003,0.993,-0.01,-0.05,-0.03,0.2,-0.98,0.17,1100,1100,1500,1500,0.02,0,2,0,1
482,76953386,1008,10,2032,-34,-12,-8,2,0.0048828125,0.9921875,-0.0166015625,-0.3658536585365854,-0.24390243902439027,0.06097560975609757,0.016,-0.003,0.993,-0.02,-0.04,-0.01,0.2,-0.98,0.17,1100,1100,1500,1500,0.02,0,2,0,1
483,76954395,1009,10,2031,-36,-13,-8,1,0.0048828125,0.99169921875,-0.017578125,-0.39634146341463417,-0.24390243902439027,0.030487804878048783,0.016,-0.004,0.992,-0.02,-0.03,0.0,0.2,-0.98,0.17,1100,1100,1500,1500,0.03,0,2,0,1
484,76955403,1008,9,2031,-35,-15,-8,0,0.00439453125,0.99169921875,-0.01708984375,-0.4573170731707317,-0.24390243902439027,0.0,0.016,-0.004,0.992,-0.01,0.0,0.0,0.2,-0.98,0.17,1100,1100,1500,1500,0.03,0,2,0,1
485,76956412,1009,9,2032,-33,-15,-9,0,0.00439453125,0.9921875,-0.01611328125,-0.4573170731707317,-0.27439024390243905,0.0,0.016,-0.004,0.992,0.0,0.02,0.0,0.2,-0.98,0.17,1100,1100,1500,1500,0.03,0,2,0,1
486,76957420,1008,8,2033,-34,-13,-9,0,0.00390625,0.99267578125,-0.0166015625,-0.39634146341463417,-0.27439024390243905,0.0,0.016,-0.004,0.992,0.0,0.01,0.0,0.2,-0.98,0.17,1100,1100,1500,1500,0.03,0,2,0,1
487,76958428,1008,7,2035,-37,-13,-8,0,0.00341796875,0.99365234375,-0.01806640625,-0.39634146341463417,-0.24390243902439027,0.0,0.016,-0.003,0.992,0.0,0.01,0.0,0.2,-0.98,0.17,1100,1100,1500,1500,0.02,0,2,0,1
488,76959437,1009,7,2035,-39,-14,-8,1,0.00341796875,0.99365234375,-0.01904296875,-0.426829268292683,-0.24390243902439027,0.030487804878048783,0.017,-0.003,0.992,0.0,0.01,0.01,0.2,-0.98,0.17,1100,1100,1500,1500,0.02,0,2,0,1
489,76960445,1008,7,2034,-40,-16,-10,2,0.00341796875,0.9931640625,-0.01953125,-0.48780487804878053,-0.30487804878048785,0.06097560975609757,0.017,-0.003,0.992,-0.01,0.04,0.0,0.2,-0.98,0.17,1100,1100,1500,1500,0.03,0,2,0,1
490,76961453,1008,8,2033,-40,-14,-9,2,0.00390625,0.99267578125,-0.01953125,-0.426829268292683,-0.27439024390243905,0.06097560975609757,0.017,-0.003,0.992,-0.02,0.03,0.0,0.2,-0.98,0.17,1100,1100,1500,1500,0.04,0,2,0,1
491,76962462,1009,7,2033,-38,-14,-8,2,0.00341796875,0.99267578125,-0.0185546875,-0.426829268292683,-0.24390243902439027,0.06097560975609757,0.018,-0.003,0.992,-0.03,0.03,0.0,0.2,-0.98,0.17,1100,1100,1500,1500,0.05,0,2,0,1
492,76963470,1008,6,2033,-34,-14,-7,1,0.0029296875,0.99267578125,-0.0166015625,-0.426829268292683,-0.2134146341463415,0.030487804878048783,0.017,-0.003,0.992,-0.02,0.03,0.01,0.2,-0.98,0.17,1100,1100,1500,1500,0.03,0,2,0,1
493,76964479,1009,6,2034,-32,-13,-8,0,0.0029296875,0.9931640625,-0.015625,-0.39634146341463417,-0.24390243902439027,0.0,0.017,-0.003,0.992,-0.01,0.02,0.02,0.2,-0.98,0.17,1100,1100,1500,1500,0.02,0,2,0,1
494,76965487,1008,7,2035,-32,-14,-8,0,0.00341796875,0.99365234375,-0.015625,-0.426829268292683,-0.24390243902439027,0.0,0.017,-0.003,0.993,0.0,0.02,0.02,0.2,-0.98,0.17,1100,1100,1500,1500,0.0,0,2,0,1
495,76966495,1008,8,2035,-34,-15,-9,0,0.00390625,0.99365234375,-0.0166015625,-0.4573170731707317,-0.27439024390243905,0.0,0.017,-0.003,0.993,0.0,0.03,0.01,0.2,-0.98,0.17,1100,1100,1500,1500,0.0,0,2,0,1
496,76967504,1009,8,2033,-34,-16,-8,1,0.00390625,0.99267578125,-0.0166015625,-0.48780487804878053,-0.24390243902439027,0.030487804878048783,0.017,-0.003,0.993,0.0,0.05,0.01,0.2,-0.98,0.17,1100,1100,1500,1500,0.0,0,2,0,1
497,76968512,1008,8,2031,-34,-16,-7,1,0.00390625,0.99169921875,-0.0166015625,-0.48780487804878053,-0.2134146341463415,0.030487804878048783,0.016,-0.003,0.992,-0.01,0.06,0.02,0.2,-0.98,0.17,1100,1100,1500,1500,0.01,0,2,0,1
498,76969520,1008,8,2031,-34,-15,-7,1,0.00390625,0.99169921875,-0.0166015625,-0.4573170731707317,-0.2134146341463415,0.030487804878048783,0.016,-0.003,0.992,-0.01,0.06,0.03,0.2,-0.98,0.17,1100,1100,1500,1500,0.01,0,2,0,1
499,76970529,1009,8,2033,-33,-13,-8,1,0.00390625,0.99267578125,-0.01611328125,-0.39634146341463417,-0.24390243902439027,0.030487804878048783,0.016,-0.003,0.992,-0.01,0.04,0.03,0.2,-0.98,0.17,1100,1100,1500,1500,0.02,0,2,0,1
500,76971537,1008,9,2034,-33,-11,-9,0,0.00439453125,0.9931640625,-0.01611328125,-0.3353658536585366,-0.27439024390243905,0.0,0.016,-0.003,0.992,0.0,0.01,0.01,0.2,-0.98,0.17,1100,1100,1500,1500,0.02,0,2,0,1
501,76972546,1009,9,2034,-33,-10,-9,0,0.00439453125,0.9931640625,-0.01611328125,-0.30487804878048785,-0.27439024390243905,0.0,0.016,-0.003,0.992,0.0,-0.02,0.0,0.2,-0.98,0.17,1100,1100,1500,1500,0.03,0,2,0,1
502,76973554,1008,6,2033,-33,-10,-8,0,0.0029296875,0.99267578125,-0.01611328125,-0.30487804878048785,-0.24390243902439027,0.0,0.016,-0.003,0.992,0.0,-0.04,0.01,0.2,-0.98,0.17,1100,1100,1500,1500,0.03,0,2,0,1
503,76974562,1008,4,2032,-34,-10,-7,1,0.001953125,0.9921875,-0.0166015625,-0.30487804878048785,-0.2134146341463415,0.030487804878048783,0.016,-0.003,0.992,0.0,-0.05,0.02,0.2,-0.98,0.17,1100,1100,1500,1500,0.03,0,2,0,1
504,76975570,1008,6,2033,-34,-10,-7,1,0.0029296875,0.99267578125,-0.0166015625,-0.30487804878048785,-0.2134146341463415,0.030487804878048783,0.016,-0.003,0.992,0.0,-0.06,0.03,0.2,-0.98,0.17,1100,1100,1500,1500,0.03,0,2,0,1
505,76976578,1008,8,2033,-34,-9,-8,0,0.00390625,0.99267578125,-0.0166015625,-0.27439024390243905,-0.24390243902439027,0.0,0.016,-0.003,0.992,0.0,-0.08,0.03,0.2,-0.98,0.17,1100,1100,1500,1500,0.03,0,2,0,1
506,76977587,1009,8,2033,-35,-8,-8,-1,0.00390625,0.99267578125,-0.01708984375,-0.24390243902439027,-0.24390243902439027,-0.030487804878048783,0.016,-0.003,0.992,0.01,-0.1,0.02,0.2,-0.98,0.17,1100,1100,1500,1500,0.02,0,2,0,1
507,76978595,1008,8,2033,-36,-9,-9,-2,0.00390625,0.99267578125,-0.017578125,-0.27439024390243905,-0.27439024390243905,-0.06097560975609757,0.016,-0.003,0.992,0.03,-0.11,0.01,0.2,-0.98,0.17,1100,1100,1500,1500,0.01,0,2,0,1
508,76979604,1009,8,2033,-35,-12,-9,-2,0.00390625,0.99267578125,-0.01708984375,-0.3658536585365854,-0.27439024390243905,-0.06097560975609757,0.016,-0.003,0.992,0.04,-0.08,0.0,0.2,-0.98,0.17,1100,1100,1500,1500,0.01,0,2,0,1
509,76980612,1008,8,2033,-34,-13,-9,0,0.00390625,0.99267578125,-0.0166015625,-0.39634146341463417,-0.27439024390243905,0.0,0.016,-0.003,0.992,0.03,-0.05,0.0,0.2,-0.98,0.17,1100,1100,1500,1500,0.01,0,2,0,1
510,76981620,1008,8,2034,-34,-13,-10,0,0.00390625,0.9931640625,-0.0166015625,-0.39634146341463417,-0.30487804878048785,0.0,0.016,-0.003,0.992,0.02,-0.03,-0.01,0.2,-0.98,0.17,1100,1100,1500,1500,0.02,0,2,0,1
511,76982629,1009,8,2035,-34,-11,-10,-1,0.00390625,0.99365234375,-0.0166015625,-0.3353658536585366,-0.30487804878048785,-0.030487804878048783,0.016,-0.003,0.992,0.03,-0.04,-0.02,0.2,-0.98,0.17,1100,1100,1500,1500,0.02,0,2,0,1
512,76983637,1008,9,2035,-36,-11,-10,-1,0.00439453125,0.99365234375,-0.017578125,-0.3353658536585366,-0.30487804878048785,-0.030487804878048783,0.016,-0.003,0.993,0.03,-0.04,-0.02,0.2,-0.98,0.17,1100,1100,1500,1500,0.02,0,2,0,1
513,76984645,1008,10,2035,-37,-12,-10,-1,0.0048828125,0.99365234375,-0.01806640625,-0.3658536585365854,-0.30487804878048785,-0.030487804878048783,0.017,-0.004,0.993,0.03,-0.04,-0.03,0.2,-0.98,0.17,1100,1100,1500,1500,0.02,0,2,0,1
514,76985654,1009,8,2034,-37,-12,-9,0,0.00390625,0.9931640625,-0.01806640625,-0.3658536585365854,-0.27439024390243905,0.0,0.017,-0.004,0.993,0.02,-0.03,-0.02,0.2,-0.98,0.17,1100,1100,1500,1500,0.02,0,2,0,1
515,76986662,1008,6,2033,-37,-14,-9,0,0.0029296875,0.99267578125,-0.01806640625,-0.426829268292683,-0.27439024390243905,0.0,0.017,-0.003,0.993,0.02,-0.01,-0.01,0.2,-0.98,0.17,1100,1100,1500,1500,0.01,0,2,0,1
516,76987671,1009,5,2033,-37,-15,-10,1,0.00244140625,0.99267578125,-0.01806640625,-0.4573170731707317,-0.30487804878048785,0.030487804878048783,0.017,-0.003,0.992,0.0,0.01,-0.02,0.2,-0.98,0.17,1100,1100,1500,1500,0.02,0,2,0,1
517,76988679,1008,6,2032,-35,-16,-11,1,0.0029296875,0.9921875,-0.01708984375,-0.48780487804878053,-0.3353658536585366,0.030487804878048783,0.017,-0.003,0.992,0.0,0.03,-0.03,0.2,-0.98,0.17,1100,1100,1500,1500,0.01,0,2,0,1
518,76989687,1008,8,2031,-32,-15,-11,0,0.00390625,0.99169921875,-0.015625,-0.4573170731707317,-0.3353658536585366,0.0,0.017,-0.003,0.992,0.0,0.04,-0.04,0.2,-0.98,0.17,1100,1100,1500,1500,0.0,0,2,0,1
519,76990696,1009,8,2031,-31,-14,-9,-1,0.00390625,0.99169921875,-0.01513671875,-0.426829268292683,-0.27439024390243905,-0.030487804878048783,0.016,-0.003,0.992,0.01,0.04,-0.03,0.2,-0.98,0.17,1100,1100,1500,1500,0.01,0,2,0,1
520,76991704,1008,7,2031,-34,-13,-8,-2,0.00341796875,0.99169921875,-0.0166015625,-0.39634146341463417,-0.24390243902439027,-0.06097560975609757,0.016,-0.003,0.992,0.03,0.02,-0.01,0.2,-0.98,0.17,1100,1100,1500,1500,0.01,0,2,0,1
521,76992712,1008,8,2032,-37,-14,-8,-3,0.00390625,0.9921875,-0.01806640625,-0.426829268292683,-0.24390243902439027,-0.09146341463414635,0.016,-0.003,0.992,0.05,0.03,0.0,0.2,-0.98,0.17,1100,1100,1500,1500,0.0,0,2,0,1
522,76993721,1009,9,2034,-38,-13,-8,-3,0.00439453125,0.9931640625,-0.0185546875,-0.39634146341463417,-0.24390243902439027,-0.09146341463414635,0.017,-0.003,0.992,0.07,0.02,0.0,0.2,-0.98,0.17,1100,1100,1500,1500,0.01,0,2,0,1
523,76994729,1008,9,2035,-37,-10,-9,-3,0.00439453125,0.99365234375,-0.01806640625,-0.30487804878048785,-0.27439024390243905,-0.09146341463414635,0.017,-0.003,0.992,0.08,-0.01,0.0,0.2,-0.98,0.17,1100,1100,1500,1500,0.02,0,2,0,1
524,76995738,1009,9,2034,-38,-11,-9,-2,0.00439453125,0.9931640625,-0.0185546875,-0.3353658536585366,-0.27439024390243905,-0.06097560975609757,0.017,-0.003,0.992,0.08,-0.03,0.0,0.2,-0.98,0.17,1100,1100,1500,1500,0.03,0,2,0,1
525,76996746,1008,9,2033,-38,-13,-8,-1,0.00439453125,0.99267578125,-0.0185546875,-0.39634146341463417,-0.24390243902439027,-0.030487804878048783,0.017,-0.004,0.992,0.06,-0.01,0.0,0.2,-0.98,0.17,1100,1100,1500,1500,0.04,0,2,0,1
526,76997754,1008,7,2032,-36,-13,-7,-1,0.00341796875,0.9921875,-0.017578125,-0.39634146341463417,-0.2134146341463415,-0.030487804878048783,0.017,-0.003,0.992,0.05,-0.01,0.02,0.2,-0.98,0.17,1100,1100,1500,1500,0.03,0,2,0,1
527,76998763,1009,6,2031,-35,-13,-9,-2,0.0029296875,0.99169921875,-0.01708984375,-0.39634146341463417,-0.27439024390243905,-0.06097560975609757,0.017,-0.003,0.992,0.06,0.0,0.01,0.2,-0.98,0.17,1100,1100,1500,1500,0.03,0,2,0,1
528,76999771,1008,6,2032,-35,-14,-10,-2,0.0029296875,0.9921875,-0.01708984375,-0.426829268292683,-0.30487804878048785,-0.06097560975609757,0.017,-0.003,0.992,0.06,0.0,0.0,0.2,-0.98,0.17,1100,1100,1500,1500,0.02,0,2,0,1
529,77000779,1008,7,2032,-36,-14,-10,-2,0.00341796875,0.9921875,-0.017578125,-0.426829268292683,-0.30487804878048785,-0.06097560975609757,0.017,-0.003,0.992,0.06,0.01,-0.01,0.2,-0.98,0.17,1100,1100,1500,1500,0.02,0,2,0,1
530,77001788,1009,8,2033,-36,-15,-9,-1,0.00390625,0.99267578125,-0.017578125,-0.4573170731707317,-0.27439024390243905,-0.030487804878048783,0.017,-0.003,0.992,0.06,0.03,-0.01,0.2,-0.98,0.17,1100,1100,1500,1500,0.02,0,2,0,1
531,77002796,1008,8,2033,-36,-15,-8,0,0.00390625,0.99267578125,-0.017578125,-0.4573170731707317,-0.24390243902439027,0.0,0.017,-0.003,0.992,0.04,0.04,0.0,0.2,-0.98,0.17,1100,1100,1500,1500,0.02,0,2,0,1
532,77003805,1009,6,2034,-35,-14,-8,0,0.0029296875,0.9931640625,-0.01708984375,-0.426829268292683,-0.24390243902439027,0.0,0.017,-0.003,0.992,0.03,0.03,0.0,0.2,-0.98,0.17,1100,1100,1500,1500,0.02,0,2,0,1
533,77004813,1008,4,2035,-36,-13,-8,0,0.001953125,0.99365234375,-0.017578125,-0.39634146341463417,-0.24390243902439027,0.0,0.017,-0.003,0.992,0.02,0.02,0.01,0.2,-0.98,0.17,1100,1100,1500,1500,0.02,0,2,0,1
534,77005821,1008,3,2034,-37,-13,-7,-1,0.00146484375,0.9931640625,-0.01806640625,-0.39634146341463417,-0.2134146341463415,-0.030487804878048783,0.017,-0.003,0.992,0.03,0.01,0.02,0.2,-0.98,0.17,1100,1100,1500,1500,0.04,0,2,0,1
535,77006830,1009,2,2034,-38,-12,-7,0,0.0009765625,0.9931640625,-0.0185546875,-0.3658536585365854,-0.2134146341463415,0.0,0.017,-0.002,0.992,0.02,0.0,0.03,0.2,-0.98,0.17,1100,1100,1500,1500,0.06,0,2,0,1
536,77007838,1008,2,2034,-36,-11,-8,1,0.0009765625,0.9931640625,-0.017578125,-0.3353658536585366,-0.24390243902439027,0.030487804878048783,0.017,-0.002,0.992,0.01,-0.01,0.03,0.2,-0.98,0.17,1100,1100,1500,1500,0.07,0,2,0,1
537,77008846,1008,2,2035,-35,-12,-9,2,0.0009765625,0.99365234375,-0.01708984375,-0.3658536585365854,-0.27439024390243905,0.06097560975609757,0.017,-0.002,0.993,0.0,-0.02,0.01,0.2,-0.98,0.17,1100,1100,1500,1500,0.08,0,2,0,1
538,77009855,1009,4,2035,-35,-14,-8,1,0.001953125,0.99365234375,-0.01708984375,-0.426829268292683,-0.24390243902439027,0.030487804878048783,0.017,-0.002,0.993,-0.01,0.0,0.01,0.2,-0.98,0.17,1100,1100,1500,1500,0.08,0,2,0,1
539,77010863,1008,8,2035,-35,-16,-8,0,0.00390625,0.99365234375,-0.01708984375,-0.48780487804878053,-0.24390243902439027,0.0,0.017,-0.002,0.993,0.0,0.02,0.02,0.2,-0.98,0.17,1100,1100,1500,1500,0.06,0,2,0,1
540,77011872,1009,9,2035,-36,-16,-9,0,0.00439453125,0.99365234375,-0.017578125,-0.48780487804878053,-0.27439024390243905,0.0,0.017,-0.002,0.993,0.0,0.05,0.01,0.2,-0.98,0.17,1100,1100,1500,1500,0.05,0,2,0,1
541,77012880,1008,8,2035,-35,-14,-9,0,0.00390625,0.99365234375,-0.01708984375,-0.426829268292683,-0.27439024390243905,0.0,0.017,-0.002,0.993,0.0,0.04,0.0,0.2,-0.98,0.17,1100,1100,1500,1500,0.04,0,2,0,1
542,77013888,1008,8,2034,-34,-13,-9,1,0.00390625,0.9931640625,-0.0166015625,-0.39634146341463417,-0.27439024390243905,0.030487804878048783,0.017,-0.003,0.993,0.0,0.03,0.0,0.2,-0.98,0.17,1100,1100,1500,1500,0.02,0,2,0,1
543,77014897,1009,6,2033,-33,-12,-10,2,0.0029296875,0.99267578125,-0.01611328125,-0.3658536585365854,-0.30487804878048785,0.06097560975609757,0.017,-0.003,0.993,-0.01,0.01,-0.01,0.2,-0.98,0.17,1100,1100,1500,1500,0.02,0,2,0,1
544,77015905,1008,5,2032,-34,-12,-11,2,0.00244140625,0.9921875,-0.0166015625,-0.3658536585365854,-0.3353658536585366,0.06097560975609757,0.017,-0.002,0.993,-0.02,0.0,-0.03,0.2,-0.98,0.17,1100,1100,1500,1500,0.03,0,2,0,1
545,77016913,1008,6,2032,-34,-14,-11,4,0.0029296875,0.9921875,-0.0166015625,-0.426829268292683,-0.3353658536585366,0.12195121951219513,0.016,-0.002,0.992,-0.05,0.0,-0.04,0.2,-0.98,0.17,1100,1100,1500,1500,0.03,0,2,0,1
546,77017922,1009,6,2034,-33,-15,-12,3,0.0029296875,0.9931640625,-0.01611328125,-0.4573170731707317,-0.3658536585365854,0.09146341463414635,0.016,-0.002,0.992,-0.06,0.02,-0.06,0.2,-0.98,0.17,1100,1100,1500,1500,0.03,0,2,0,1
547,77018930,1008,5,2036,-33,-15,-12,1,0.00244140625,0.994140625,-0.01611328125,-0.4573170731707317,-0.3658536585365854,0.030487804878048783,0.016,-0.002,0.993,-0.04,0.03,-0.07,0.2,-0.98,0.17,1100,1100,1500,1500,0.04,0,2,0,1
548,77019939,1009,5,2036,-33,-13,-11,0,0.00244140625,0.994140625,-0.01611328125,-0.39634146341463417,-0.3353658536585366,0.0,0.016,-0.002,0.993,-0.02,0.02,-0.07,0.2,-0.98,0.17,1100,1100,1500,1500,0.05,0,2,0,1
549,77020947,1008,7,2035,-33,-13,-10,1,0.00341796875,0.99365234375,-0.01611328125,-0.39634146341463417,-0.30487804878048785,0.030487804878048783,0.016,-0.002,0.993,-0.02,0.01,-0.06,0.2,-0.98,0.17,1100,1100,1500,1500,0.05,0,2,0,1
550,77021955,1008,8,2034,-33,-13,-10,2,0.00390625,0.9931640625,-0.01611328125,-0.39634146341463417,-0.30487804878048785,0.06097560975609757,0.016,-0.003,0.993,-0.03,0.01,-0.05,0.2,-0.98,0.17,1100,1100,1500,1500,0.04,0,2,0,1
551,77022964,1009,8,2032,-35,-12,-11,3,0.00390625,0.9921875,-0.01708984375,-0.3658536585365854,-0.3353658536585366,0.09146341463414635,0.016,-0.003,0.993,-0.04,0.0,-0.05,0.2,-0.98,0.17,1100,1100,1500,1500,0.03,0,2,0,1
