index,timestamp_us,dt_us,raw_accel_x,raw_accel_y,raw_accel_z,raw_gyro_x,raw_gyro_y,raw_gyro_z,accel_x_g,accel_y_g,accel_z_g,gyro_x_dps,gyro_y_dps,gyro_z_dps,accel_filt_x_g,accel_filt_y_g,accel_filt_z_g,gyro_filt_x_dps,gyro_filt_y_dps,gyro_filt_z_dps,roll_deg,pitch_deg,yaw_deg,motor_upper_us,motor_lower_us,servo_alpha_us,servo_beta_us,accel_error_deg,fusion_flags,flight_flags,armed,gyro_bias_ready
0,84321687,,-261,1935,-410,35,-99,39,-0.12744140625,0.94482421875,-0.2001953125,1.0670731707317074,-3.0182926829268295,1.1890243902439026,0.109,0.02,0.979,0.3,-0.98,0.96,0.61,-1.12,1.53,1459,1459,1500,1500,5.56,0,3,1,1
1,84322695,1008,-323,2047,5,-6,-208,75,-0.15771484375,0.99951171875,0.00244140625,-0.1829268292682927,-6.341463414634147,2.2865853658536586,0.091,0.042,0.982,-0.57,-0.72,-1.39,0.61,-1.12,1.53,1459,1459,1500,1500,5.2,0,3,1,1
2,84323704,1009,94,2203,212,-47,-254,66,0.0458984375,1.07568359375,0.103515625,-1.4329268292682928,-7.743902439024391,2.0121951219512195,0.06,0.028,0.997,-1.05,-0.13,-3.42,0.61,-1.12,1.52,1459,1459,1500,1500,3.24,0,3,1,1
3,84324712,1008,434,2181,559,-68,-202,49,0.2119140625,1.06494140625,0.27294921875,-2.073170731707317,-6.158536585365854,1.4939024390243905,0.007,-0.009,1.008,-1.21,0.47,-4.25,0.61,-1.12,1.52,1459,1459,1500,1500,0.68,0,3,1,1
4,84325721,1009,232,2008,768,-40,-34,-19,0.11328125,0.98046875,0.375,-1.2195121951219514,-1.0365853658536586,-0.5792682926829269,-0.052,-0.026,1.003,-0.61,0.58,-3.09,0.61,-1.12,1.52,1459,1459,1500,1500,4.23,0,3,1,1
5,84326729,1008,308,1917,462,-11,167,-84,0.150390625,0.93603515625,0.2255859375,-0.3353658536585366,5.091463414634147,-2.5609756097560976,-0.08,-0.045,0.992,0.43,0.37,-0.26,0.61,-1.12,1.52,1459,1459,1500,1500,6.09,0,3,1,1
6,84327737,1008,367,1972,137,-19,271,-64,0.17919921875,0.962890625,0.06689453125,-0.5792682926829269,8.26219512195122,-1.9512195121951221,-0.078,-0.067,0.988,0.93,0.3,2.67,0.61,-1.11,1.52,1459,1459,1500,1500,6.51,0,3,1,1
7,84328746,1009,-124,2044,-334,-14,256,-19,-0.060546875,0.998046875,-0.1630859375,-0.426829268292683,7.8048780487804885,-0.5792682926829269,-0.039,-0.046,0.989,0.81,0.21,4.47,0.61,-1.11,1.52,1459,1459,1500,1500,4.01,0,3,1,1
8,84329754,1008,-380,2036,-988,4,132,10,-0.185546875,0.994140625,-0.482421875,0.12195121951219513,4.024390243902439,0.30487804878048785,0.042,-0.009,0.99,0.43,-0.02,4.41,0.61,-1.11,1.53,1459,1459,1500,1500,1.36,0,3,1,1
9,84330762,1008,-286,2082,-871,2,-55,53,-0.1396484375,1.0166015625,-0.42529296875,0.06097560975609757,-1.676829268292683,1.6158536585365855,0.103,0.013,0.994,-0.26,-0.17,2.46,0.61,-1.12,1.53,1459,1459,1500,1500,5.03,0,3,1,1
10,84331771,1009,-300,2048,-407,0,-194,70,-0.146484375,1.0,-0.19873046875,0.0,-5.914634146341464,2.1341463414634148,0.118,0.034,0.995,-0.89,-0.24,-0.25,0.61,-1.12,1.53,1459,1459,1500,1500,6.25,0,3,1,1
11,84332778,1007,-72,2012,-157,4,-259,25,-0.03515625,0.982421875,-0.07666015625,0.12195121951219513,-7.896341463414635,0.7621951219512195,0.112,0.034,0.993,-0.85,-0.33,-2.72,0.61,-1.12,1.53,1459,1459,1500,1500,5.92,0,3,1,1
12,84333786,1008,436,2089,601,-39,-241,-13,0.212890625,1.02001953125,0.29345703125,-1.1890243902439026,-7.347560975609757,-0.39634146341463417,0.047,-0.004,0.997,-0.44,0.04,-4.18,0.61,-1.12,1.52,1459,1459,1500,1500,1.65,0,3,1,1
13,84334794,1008,450,2046,1151,-83,-93,-20,0.2197265625,0.9990234375,0.56201171875,-2.530487804878049,-2.8353658536585367,-0.6097560975609757,-0.048,-0.038,0.997,-0.09,0.74,-3.64,0.61,-1.12,1.52,1459,1459,1500,1500,4.25,0,3,1,1
14,84335803,1009,15,2028,622,-39,99,-63,0.00732421875,0.990234375,0.3037109375,-1.1890243902439026,3.0182926829268295,-1.9207317073170733,-0.089,-0.033,0.996,0.56,0.75,-1.32,0.61,-1.12,1.52,1459,1459,1500,1500,6.38,0,3,1,1
15,84336811,1008,-77,2020,72,15,221,-92,-0.03759765625,0.986328125,0.03515625,0.4573170731707317,6.737804878048781,-2.804878048780488,-0.08,-0.022,0.994,1.31,0.22,1.45,0.61,-1.11,1.52,1459,1459,1500,1500,5.8,0,3,1,1
16,84337819,1008,-58,1937,-193,-6,265,-27,-0.0283203125,0.94580078125,-0.09423828125,-0.1829268292682927,8.079268292682928,-0.8231707317073171,-0.053,-0.014,0.987,1.14,0.07,3.75,0.61,-1.11,1.52,1459,1459,1500,1500,4.2,0,3,1,1
17,84338828,1009,-283,1954,-802,-32,181,57,-0.13818359375,0.9541015625,-0.3916015625,-0.9756097560975611,5.5182926829268295,1.7378048780487807,0.017,0.009,0.981,0.17,0.24,4.43,0.61,-1.11,1.53,1459,1459,1500,1500,1.19,0,3,1,1
18,84339835,1007,-166,2059,-1182,-18,-29,90,-0.0810546875,1.00537109375,-0.5771484375,-0.5487804878048781,-0.8841463414634148,2.7439024390243905,0.106,0.021,0.985,-0.81,0.21,2.74,0.61,-1.11,1.53,1459,1459,1500,1500,5.36,0,3,1,1
19,84340843,1008,298,2128,-790,-18,-240,100,0.1455078125,1.0390625,-0.3857421875,-0.5487804878048781,-7.317073170731708,3.048780487804878,0.15,-0.005,0.994,-1.56,0.19,-0.53,0.61,-1.12,1.53,1459,1459,1500,1500,7.5,0,3,1,1
20,84341852,1009,366,2105,-227,-19,-349,70,0.1787109375,1.02783203125,-0.11083984375,-0.5792682926829269,-10.640243902439025,2.1341463414634148,0.144,-0.032,0.999,-1.76,0.19,-3.82,0.61,-1.12,1.53,1459,1459,1500,1500,7.2,0,3,1,1
21,84342860,1008,104,2094,363,-2,-305,-20,0.05078125,1.0224609375,0.17724609375,-0.06097560975609757,-9.298780487804878,-0.6097560975609757,0.093,-0.035,1.003,-0.97,0.01,-5.57,0.61,-1.12,1.52,1459,1459,1500,1500,4.42,0,3,1,1
22,84343869,1009,12,2028,1034,-22,-141,-85,0.005859375,0.990234375,0.5048828125,-0.6707317073170732,-4.298780487804878,-2.5914634146341466,-0.001,-0.03,1.001,0.2,0.1,-5.05,0.61,-1.12,1.52,1459,1459,1500,1500,1.67,0,3,1,1
23,84344877,1008,-114,1959,1093,-40,49,-88,-0.0556640625,0.95654296875,0.53369140625,-1.2195121951219514,1.4939024390243905,-2.682926829268293,-0.085,-0.017,0.994,1.03,0.34,-2.77,0.61,-1.12,1.51,1459,1459,1500,1500,6.08,0,3,1,1
24,84345885,1008,-343,1999,515,-15,195,-77,-0.16748046875,0.97607421875,0.25146484375,-0.4573170731707317,5.945121951219512,-2.347560975609756,-0.112,0.012,0.991,1.46,0.25,0.22,0.61,-1.11,1.51,1459,1459,1500,1500,7.69,0,3,1,1
25,84346894,1009,-292,1927,-181,-8,237,-44,-0.142578125,0.94091796875,-0.08837890625,-0.24390243902439027,7.225609756097562,-1.3414634146341464,-0.08,0.032,0.983,1.41,0.11,2.65,0.61,-1.11,1.52,1459,1459,1500,1500,6.32,0,3,1,1
26,84347902,1008,-53,1908,-755,-32,177,23,-0.02587890625,0.931640625,-0.36865234375,-0.9756097560975611,5.396341463414634,0.701219512195122,-0.009,0.031,0.975,0.7,0.27,3.65,0.61,-1.11,1.52,1459,1459,1500,1500,2.98,0,3,1,1
27,84348910,1008,197,2036,-1038,-38,83,94,0.09619140625,0.994140625,-0.5068359375,-1.1585365853658538,2.530487804878049,2.8658536585365857,0.072,0.011,0.978,-0.49,0.43,3.36,0.61,-1.11,1.52,1459,1459,1500,1500,3.38,0,3,1,1
28,84349919,1009,428,2062,-931,-28,-47,139,0.208984375,1.0068359375,-0.45458984375,-0.853658536585366,-1.4329268292682928,4.237804878048781,0.133,-0.023,0.982,-1.75,0.44,1.84,0.61,-1.11,1.52,1459,1459,1500,1500,6.65,0,3,1,1
29,84350927,1008,460,2109,-312,-39,-205,120,0.224609375,1.02978515625,-0.15234375,-1.1890243902439026,-6.250000000000001,3.658536585365854,0.136,-0.055,0.99,-2.4,0.56,-0.77,0.61,-1.12,1.52,1459,1459,1500,1500,7.18,0,3,1,1
30,84351934,1007,345,2227,288,-25,-266,33,0.16845703125,1.08740234375,0.140625,-0.7621951219512195,-8.109756097560977,1.0060975609756098,0.092,-0.073,1.005,-1.94,0.49,-3.13,0.62,-1.12,1.52,1459,1459,1500,1500,5.43,0,3,1,1
31,84352942,1008,82,2197,635,16,-160,-77,0.0400390625,1.07275390625,0.31005859375,0.48780487804878053,-4.878048780487806,-2.347560975609756,0.028,-0.068,1.016,-0.51,0.03,-3.63,0.62,-1.12,1.52,1459,1459,1500,1500,3.24,0,3,1,1
32,84353950,1008,-305,2018,1042,8,25,-148,-0.14892578125,0.9853515625,0.5087890625,0.24390243902439027,0.7621951219512195,-4.51219512195122,-0.056,-0.033,1.011,1.16,-0.19,-2.07,0.62,-1.12,1.51,1459,1459,1500,1500,4.51,0,3,1,1
33,84354958,1008,-508,1931,687,-15,177,-132,-0.248046875,0.94287109375,0.33544921875,-0.4573170731707317,5.396341463414634,-4.024390243902439,-0.1,0.011,1.0,2.11,-0.1,0.51,0.62,-1.11,1.51,1459,1459,1500,1500,6.99,0,3,1,1
34,84355966,1008,-596,1964,-199,-16,230,-65,-0.291015625,0.958984375,-0.09716796875,-0.48780487804878053,7.01219512195122,-1.981707317073171,-0.069,0.055,0.993,2.06,-0.03,2.77,0.61,-1.11,1.52,1459,1459,1500,1500,6.37,0,3,1,1
35,84356975,1009,-476,1924,-566,-19,195,7,-0.232421875,0.939453125,-0.2763671875,-0.5792682926829269,5.945121951219512,0.2134146341463415,-0.014,0.083,0.985,1.29,0.03,3.92,0.61,-1.11,1.52,1459,1459,1500,1500,5.8,0,3,1,1
36,84357983,1008,71,1949,-789,-25,109,83,0.03466796875,0.95166015625,-0.38525390625,-0.7621951219512195,3.3231707317073176,2.530487804878049,0.048,0.064,0.979,0.0,0.14,3.8,0.6,-1.11,1.53,1459,1459,1500,1500,4.72,0,3,1,1
37,84358991,1008,547,2079,-837,-33,-28,139,0.26708984375,1.01513671875,-0.40869140625,-1.0060975609756098,-0.853658536585366,4.237804878048781,0.105,0.012,0.985,-1.41,0.3,2.33,0.61,-1.11,1.53,1459,1459,1500,1500,5.18,0,3,1,1
38,84359999,1008,712,2102,-494,-41,-156,142,0.34765625,1.0263671875,-0.2412109375,-1.25,-4.75609756097561,4.329268292682928,0.127,-0.044,0.991,-2.4,0.48,0.05,0.61,-1.11,1.53,1459,1459,1500,1500,6.5,0,3,1,1
39,84361008,1009,735,2114,-67,-35,-201,95,0.35888671875,1.0322265625,-0.03271484375,-1.0670731707317074,-6.128048780487806,2.8963414634146343,0.112,-0.094,0.998,-2.57,0.54,-1.92,0.61,-1.12,1.53,1459,1459,1500,1500,7.13,0,3,1,1
40,84362016,1008,427,2178,472,4,-158,2,0.20849609375,1.0634765625,0.23046875,0.12195121951219513,-4.817073170731708,0.06097560975609757,0.057,-0.112,1.008,-1.73,0.19,-2.8,0.62,-1.12,1.52,1459,1459,1500,1500,6.14,0,3,1,1
41,84363025,1009,-135,2182,945,22,-34,-118,-0.06591796875,1.0654296875,0.46142578125,0.6707317073170732,-1.0365853658536586,-3.5975609756097566,-0.024,-0.084,1.017,0.03,-0.22,-2.12,0.62,-1.12,1.52,1459,1459,1500,1500,4.81,0,3,1,1
42,84364032,1007,-568,2128,794,-11,108,-186,-0.27734375,1.0390625,0.3876953125,-0.3353658536585366,3.2926829268292686,-5.670731707317073,-0.082,-0.027,1.021,1.91,-0.17,-0.22,0.62,-1.11,1.52,1459,1459,1500,1500,5.78,0,3,1,1
43,84365039,1007,-835,2010,-41,-2,175,-148,-0.40771484375,0.9814453125,-0.02001953125,-0.06097560975609757,5.335365853658537,-4.51219512195122,-0.065,0.041,1.014,2.77,-0.22,1.72,0.61,-1.11,1.52,1459,1459,1500,1500,5.68,0,3,1,1
44,84366047,1008,-829,1779,-619,31,141,-54,-0.40478515625,0.86865234375,-0.30224609375,0.9451219512195123,4.298780487804878,-1.6463414634146343,-0.007,0.099,0.991,2.39,-0.59,2.66,0.61,-1.11,1.53,1459,1459,1500,1500,6.53,0,3,1,1
45,84367055,1008,-309,1723,-543,-6,42,44,-0.15087890625,0.84130859375,-0.26513671875,-0.1829268292682927,1.2804878048780488,1.3414634146341464,0.035,0.107,0.967,1.13,-0.46,2.29,0.6,-1.11,1.53,1459,1459,1500,1500,7.03,0,3,1,1
46,84368064,1009,440,1980,-469,-61,-82,127,0.21484375,0.966796875,-0.22900390625,-1.8597560975609757,-2.5,3.8719512195121957,0.066,0.056,0.967,-0.54,0.17,0.77,0.6,-1.11,1.53,1459,1459,1500,1500,4.84,0,3,1,1
47,84369072,1008,763,2151,-485,-58,-184,162,0.37255859375,1.05029296875,-0.23681640625,-1.7682926829268295,-5.609756097560976,4.939024390243903,0.093,-0.011,0.98,-2.02,0.57,-1.27,0.61,-1.12,1.53,1459,1459,1500,1500,4.32,0,3,1,1
48,84370081,1009,644,2168,-199,-24,-199,119,0.314453125,1.05859375,-0.09716796875,-0.7317073170731708,-6.067073170731708,3.628048780487805,0.094,-0.059,0.993,-2.56,0.49,-2.78,0.61,-1.12,1.52,1459,1459,1500,1500,5.12,0,3,1,1
49,84371089,1008,548,2212,371,-9,-133,46,0.267578125,1.080078125,0.18115234375,-0.27439024390243905,-4.0548780487804885,1.402439024390244,0.05,-0.092,1.006,-2.18,0.29,-3.12,0.61,-1.12,1.52,1459,1459,1500,1500,4.95,0,3,1,1
50,84372097,1008,267,2179,698,-3,-38,-32,0.13037109375,1.06396484375,0.3408203125,-0.09146341463414635,-1.1585365853658538,-0.9756097560975611,-0.011,-0.098,1.015,-1.13,0.09,-2.38,0.62,-1.12,1.52,1459,1459,1500,1500,5.23,0,3,1,1
51,84373106,1009,-253,2073,520,12,50,-143,-0.12353515625,1.01220703125,0.25390625,0.3658536585365854,1.524390243902439,-4.359756097560976,-0.05,-0.063,1.015,0.69,-0.19,-0.98,0.62,-1.12,1.52,1459,1459,1500,1500,4.92,0,3,1,1
52,84374114,1008,-518,2038,163,6,115,-205,-0.2529296875,0.9951171875,0.07958984375,0.1829268292682927,3.50609756097561,-6.250000000000001,-0.054,-0.013,1.012,2.54,-0.32,0.6,0.62,-1.11,1.52,1459,1459,1500,1500,4.22,0,3,1,1
53,84375121,1007,-708,1938,-236,13,146,-137,-0.345703125,0.9462890625,-0.115234375,0.39634146341463417,4.451219512195122,-4.176829268292683,-0.027,0.043,1.001,3.08,-0.47,1.97,0.61,-1.11,1.52,1459,1459,1500,1500,4.13,0,3,1,1
54,84376130,1009,-832,1741,-557,32,109,-21,-0.40625,0.85009765625,-0.27197265625,0.9756097560975611,3.3231707317073176,-0.6402439024390244,0.019,0.101,0.977,2.26,-0.77,2.51,0.61,-1.11,1.52,1459,1459,1500,1500,6.53,0,3,1,1
55,84377138,1008,-258,1835,-521,-12,-23,76,-0.1259765625,0.89599609375,-0.25439453125,-0.3658536585365854,-0.701219512195122,2.3170731707317076,0.056,0.105,0.964,0.72,-0.52,1.52,0.6,-1.11,1.52,1459,1459,1500,1500,7.18,0,3,1,1
56,84378146,1008,619,2098,-217,-75,-179,150,0.30224609375,1.0244140625,-0.10595703125,-2.2865853658536586,-5.457317073170732,4.573170731707317,0.064,0.04,0.974,-1.05,0.28,-0.72,0.6,-1.12,1.52,1459,1459,1500,1500,4.01,0,3,1,1
57,84379155,1009,847,2113,-82,-65,-216,160,0.41357421875,1.03173828125,-0.0400390625,-1.981707317073171,-6.585365853658537,4.878048780487806,0.06,-0.031,0.983,-2.34,0.71,-2.59,0.6,-1.12,1.52,1459,1459,1500,1500,2.71,0,3,1,1
58,84380163,1008,642,2135,20,-10,-125,95,0.3134765625,1.04248046875,0.009765625,-0.30487804878048785,-3.810975609756098,2.8963414634146343,0.049,-0.076,0.992,-2.53,0.44,-2.91,0.61,-1.12,1.52,1459,1459,1500,1500,4.15,0,3,1,1
59,84381170,1007,454,2228,491,1,-27,19,0.2216796875,1.087890625,0.23974609375,0.030487804878048783,-0.8231707317073171,0.5792682926829269,0.003,-0.099,1.007,-1.88,0.15,-2.12,0.61,-1.12,1.52,1459,1459,1500,1500,5.09,0,3,1,1
60,84382179,1009,34,2110,653,-14,67,-62,0.0166015625,1.0302734375,0.31884765625,-0.426829268292683,2.0426829268292686,-1.8902439024390245,-0.047,-0.086,1.011,-0.63,0.11,-0.64,0.62,-1.11,1.52,1459,1459,1500,1500,5.7,0,3,1,1
61,84383187,1008,-371,1976,159,3,130,-158,-0.18115234375,0.96484375,0.07763671875,0.09146341463414635,3.963414634146342,-4.817073170731708,-0.052,-0.043,1.003,1.18,-0.08,0.98,0.62,-1.11,1.52,1459,1459,1500,1500,4.5,0,3,1,1
62,84384194,1007,-405,2005,-185,30,136,-178,-0.19775390625,0.97900390625,-0.09033203125,0.9146341463414634,4.146341463414634,-5.426829268292684,-0.029,-0.005,1.0,2.59,-0.49,2.12,0.61,-1.11,1.52,1459,1459,1500,1500,2.83,0,3,1,1
63,84385203,1009,-550,1926,-370,51,138,-78,-0.2685546875,0.9404296875,-0.1806640625,1.5548780487804879,4.207317073170732,-2.378048780487805,0.003,0.037,0.99,2.51,-0.98,2.91,0.61,-1.11,1.52,1459,1459,1500,1500,2.95,0,3,1,1
64,84386211,1008,-683,1786,-652,51,53,29,-0.33349609375,0.8720703125,-0.318359375,1.5548780487804879,1.6158536585365855,0.8841463414634148,0.053,0.084,0.971,1.37,-1.3,2.56,0.6,-1.11,1.52,1459,1459,1500,1500,5.96,0,3,1,1
65,84387219,1008,-78,2000,-398,-11,-138,93,-0.0380859375,0.9765625,-0.1943359375,-0.3353658536585366,-4.207317073170732,2.8353658536585367,0.075,0.077,0.972,-0.04,-0.88,0.38,0.6,-1.12,1.52,1459,1459,1500,1500,6.14,0,3,1,1
66,84388228,1009,651,2203,87,-83,-242,147,0.31787109375,1.07568359375,0.04248046875,-2.530487804878049,-7.378048780487806,4.481707317073171,0.057,0.014,0.988,-1.53,0.12,-2.12,0.6,-1.12,1.52,1459,1459,1500,1500,2.63,0,3,1,1
67,84389236,1008,584,2088,104,-64,-183,130,0.28515625,1.01953125,0.05078125,-1.9512195121951221,-5.579268292682928,3.963414634146342,0.04,-0.032,0.993,-2.35,0.6,-3.19,0.61,-1.12,1.52,1459,1459,1500,1500,1.74,0,3,1,1
68,84390243,1007,390,2072,299,-8,-45,36,0.1904296875,1.01171875,0.14599609375,-0.24390243902439027,-1.3719512195121952,1.0975609756097562,0.01,-0.057,0.996,-1.94,0.35,-2.49,0.61,-1.12,1.52,1459,1459,1500,1500,2.75,0,3,1,1
69,84391251,1008,426,2125,631,-11,114,-20,0.2080078125,1.03759765625,0.30810546875,-0.3353658536585366,3.4756097560975614,-0.6097560975609757,-0.039,-0.081,1.003,-1.09,0.21,-0.41,0.61,-1.12,1.52,1459,1459,1500,1500,5.28,0,3,1,1
70,84392280,1029,-55,2100,244,-28,197,-69,-0.02685546875,1.025390625,0.119140625,-0.853658536585366,6.00609756097561,-2.103658536585366,-0.052,-0.064,1.006,-0.03,0.29,1.82,0.61,-1.11,1.52,1459,1459,1500,1500,5.11,0,3,1,1
71,84393267,987,-435,2070,-346,1,154,-158,-0.21240234375,1.0107421875,-0.1689453125,0.030487804878048783,4.695121951219512,-4.817073170731708,-0.017,-0.02,1.007,1.58,0.05,2.87,0.61,-1.11,1.52,1459,1459,1500,1500,2.17,0,3,1,1
72,84394275,1008,-148,2008,-491,34,93,-144,-0.072265625,0.98046875,-0.23974609375,1.0365853658536586,2.8353658536585367,-4.390243902439025,0.023,-0.005,1.003,2.51,-0.44,2.94,0.61,-1.11,1.52,1459,1459,1500,1500,0.35,0,3,1,1
73,84395284,1009,-312,1842,-551,54,54,-19,-0.15234375,0.8994140625,-0.26904296875,1.6463414634146343,1.6463414634146343,-0.5792682926829269,0.062,0.019,0.986,1.86,-0.97,2.59,0.61,-1.11,1.53,1459,1459,1500,1500,3.04,0,3,1,1
74,84396292,1008,-584,1769,-466,41,-70,60,-0.28515625,0.86376953125,-0.2275390625,1.25,-2.1341463414634148,1.829268292682927,0.088,0.061,0.967,0.61,-1.2,1.1,0.6,-1.12,1.53,1459,1459,1500,1500,5.9,0,3,1,1
75,84397299,1007,61,2057,-22,-49,-222,98,0.02978515625,1.00439453125,-0.0107421875,-1.4939024390243905,-6.7682926829268295,2.987804878048781,0.076,0.046,0.973,-0.59,-0.43,-1.44,0.6,-1.12,1.53,1459,1459,1500,1500,4.75,0,3,1,1
76,84398308,1009,528,2258,277,-104,-241,128,0.2578125,1.1025390625,0.13525390625,-3.1707317073170733,-7.347560975609757,3.9024390243902443,0.042,-0.001,0.993,-1.7,0.64,-3.33,0.6,-1.12,1.52,1459,1459,1500,1500,1.43,0,3,1,1
77,84399316,1008,291,2123,361,-43,-122,73,0.14208984375,1.03662109375,0.17626953125,-1.3109756097560976,-3.7195121951219514,2.225609756097561,0.007,-0.023,1.0,-1.88,0.73,-3.37,0.61,-1.12,1.52,1459,1459,1500,1500,1.0,0,3,1,1
78,84400325,1009,334,2006,544,2,36,-32,0.1630859375,0.9794921875,0.265625,0.06097560975609757,1.0975609756097562,-0.9756097560975611,-0.035,-0.045,0.997,-0.93,0.33,-1.79,0.61,-1.12,1.52,1459,1459,1500,1500,3.74,0,3,1,1
79,84401331,1006,510,2017,483,-25,156,-69,0.2490234375,0.98486328125,0.23583984375,-0.7621951219512195,4.75609756097561,-2.103658536585366,-0.067,-0.078,0.995,0.07,0.34,0.48,0.61,-1.11,1.52,1459,1459,1500,1500,6.3,0,3,1,1
80,84402340,1009,97,2087,-100,-33,204,-61,0.04736328125,1.01904296875,-0.048828125,-1.0060975609756098,6.219512195121951,-1.8597560975609757,-0.048,-0.073,0.998,0.66,0.43,2.49,0.61,-1.11,1.52,1459,1459,1500,1500,5.29,0,3,1,1
81,84403348,1008,-469,2072,-640,14,156,-84,-0.22900390625,1.01171875,-0.3125,0.426829268292683,4.75609756097561,-2.5609756097560976,0.008,-0.025,1.0,1.29,0.01,3.33,0.61,-1.11,1.52,1459,1459,1500,1500,1.04,0,3,1,1
82,84404356,1008,-452,1927,-648,55,35,-83,-0.220703125,0.94091796875,-0.31640625,1.676829268292683,1.0670731707317074,-2.530487804878049,0.057,0.013,0.991,1.69,-0.68,2.66,0.61,-1.11,1.53,1459,1459,1500,1500,2.6,0,3,1,1
83,84405365,1009,-198,1825,-447,41,-82,8,-0.0966796875,0.89111328125,-0.21826171875,1.25,-2.5,0.24390243902439027,0.082,0.026,0.975,1.04,-1.0,1.02,0.61,-1.12,1.53,1459,1459,1500,1500,4.33,0,3,1,1
84,84406373,1008,-175,1989,-212,0,-177,96,-0.08544921875,0.97119140625,-0.103515625,0.0,-5.396341463414634,2.9268292682926833,0.086,0.036,0.974,-0.29,-0.8,-1.03,0.61,-1.12,1.53,1459,1459,1500,1500,4.78,0,3,1,1
85,84407381,1008,83,2227,100,-40,-243,108,0.04052734375,1.08740234375,0.048828125,-1.2195121951219514,-7.408536585365854,3.2926829268292686,0.064,0.024,0.992,-1.3,-0.25,-3.08,0.61,-1.12,1.52,1459,1459,1500,1500,3.28,0,3,1,1
86,84408389,1008,421,2208,385,-56,-228,77,0.20556640625,1.078125,0.18798828125,-1.707317073170732,-6.951219512195123,2.347560975609756,0.024,-0.012,1.006,-1.65,0.26,-4.28,0.61,-1.12,1.52,1459,1459,1500,1500,0.29,0,3,1,1
87,84409397,1008,298,2053,667,-25,-103,-4,0.1455078125,1.00244140625,0.32568359375,-0.7621951219512195,-3.1402439024390247,-0.12195121951219513,-0.03,-0.033,1.005,-1.07,0.3,-3.81,0.61,-1.12,1.52,1459,1459,1500,1500,3.16,0,3,1,1
88,84410405,1008,316,1941,619,-3,91,-80,0.154296875,0.94775390625,0.30224609375,-0.09146341463414635,2.774390243902439,-2.439024390243903,-0.073,-0.052,0.996,0.09,0.09,-1.52,0.61,-1.12,1.51,1459,1459,1500,1500,5.88,0,3,1,1
89,84411414,1009,410,1969,150,-25,228,-62,0.2001953125,0.96142578125,0.0732421875,-0.7621951219512195,6.951219512195123,-1.8902439024390245,-0.073,-0.076,0.99,0.68,0.18,1.39,0.61,-1.11,1.52,1459,1459,1500,1500,6.56,0,3,1,1
90,84412422,1008,-120,2026,-465,-18,223,-18,-0.05859375,0.9892578125,-0.22705078125,-0.5487804878048781,6.798780487804879,-0.5487804878048781,-0.026,-0.054,0.99,0.63,0.17,3.29,0.61,-1.11,1.52,1459,1459,1500,1500,3.65,0,3,1,1
91,84413430,1008,-512,1977,-994,37,116,-16,-0.25,0.96533203125,-0.4853515625,1.128048780487805,3.536585365853659,-0.48780487804878053,0.055,-0.006,0.986,0.57,-0.39,3.46,0.61,-1.11,1.52,1459,1459,1500,1500,2.09,0,3,1,1
92,84414437,1007,-263,1990,-803,51,-41,10,-0.12841796875,0.9716796875,-0.39208984375,1.5548780487804879,-1.25,0.30487804878048785,0.108,0.015,0.984,0.27,-0.91,1.97,0.61,-1.12,1.52,1459,1459,1500,1500,5.38,0,3,1,1
93,84415446,1009,-137,2027,-258,-2,-174,65,-0.06689453125,0.98974609375,-0.1259765625,-0.06097560975609757,-5.3048780487804885,1.981707317073171,0.111,0.023,0.985,-0.48,-0.71,-0.37,0.61,-1.12,1.52,1459,1459,1500,1500,5.67,0,3,1,1
94,84416453,1007,-119,2063,-114,-41,-235,76,-0.05810546875,1.00732421875,-0.0556640625,-1.25,-7.164634146341464,2.3170731707317076,0.102,0.028,0.988,-1.1,-0.19,-2.55,0.61,-1.12,1.52,1459,1459,1500,1500,5.3,0,3,1,1
95,84417461,1008,166,2159,321,-53,-241,42,0.0810546875,1.05419921875,0.15673828125,-1.6158536585365855,-7.347560975609757,1.2804878048780488,0.061,0.011,0.999,-1.17,0.28,-4.07,0.61,-1.12,1.52,1459,1459,1500,1500,2.7,0,3,1,1
96,84418470,1009,346,2110,958,-45,-140,-6,0.1689453125,1.0302734375,0.4677734375,-1.3719512195121952,-4.2682926829268295,-0.1829268292682927,-0.022,-0.017,1.003,-0.72,0.51,-4.05,0.61,-1.12,1.51,1459,1459,1500,1500,2.44,0,3,1,1
97,84419478,1008,271,2018,844,-12,59,-65,0.13232421875,0.9853515625,0.412109375,-0.3658536585365854,1.7987804878048783,-1.981707317073171,-0.084,-0.035,1.001,0.17,0.33,-2.0,0.61,-1.12,1.51,1459,1459,1500,1500,6.11,0,3,1,1
98,84420486,1008,174,2039,402,-2,230,-90,0.0849609375,0.99560546875,0.1962890625,-0.06097560975609757,7.01219512195122,-2.7439024390243905,-0.102,-0.043,1.0,1.02,0.1,1.09,0.61,-1.11,1.51,1459,1459,1500,1500,7.19,0,3,1,1
99,84421495,1009,-32,1955,-108,-15,296,-37,-0.015625,0.95458984375,-0.052734375,-0.4573170731707317,9.02439024390244,-1.128048780487805,-0.077,-0.033,0.992,1.05,0.09,3.83,0.61,-1.11,1.52,1459,1459,1500,1500,5.74,0,3,1,1
100,84422502,1007,-323,1844,-930,1,222,37,-0.15771484375,0.900390625,-0.4541015625,0.030487804878048783,6.7682926829268295,1.128048780487805,0.006,-0.003,0.978,0.31,-0.07,4.9,0.61,-1.11,1.52,1459,1459,1500,1500,0.82,0,3,1,1
101,84423510,1008,-294,2019,-1116,21,42,71,-0.1435546875,0.98583984375,-0.544921875,0.6402439024390244,1.2804878048780488,2.164634146341464,0.092,0.019,0.979,-0.52,-0.39,3.77,0.61,-1.11,1.52,1459,1459,1500,1500,4.61,0,3,1,1
102,84424519,1009,26,2193,-507,-9,-135,80,0.0126953125,1.07080078125,-0.24755859375,-0.27439024390243905,-4.115853658536586,2.439024390243903,0.116,0.014,0.993,-1.16,-0.3,1.22,0.61,-1.12,1.53,1459,1459,1500,1500,5.77,0,3,1,1
103,84425526,1007,172,2077,-226,-35,-249,60,0.083984375,1.01416015625,-0.1103515625,-1.0670731707317074,-7.591463414634147,1.829268292682927,0.115,-0.001,0.997,-1.39,0.02,-1.63,0.61,-1.12,1.52,1459,1459,1500,1500,5.53,0,3,1,1
104,84426534,1008,156,2060,18,-14,-258,2,0.076171875,1.005859375,0.0087890625,-0.426829268292683,-7.865853658536586,0.06097560975609757,0.095,-0.012,0.998,-0.95,0.02,-3.63,0.61,-1.12,1.52,1459,1459,1500,1500,4.37,0,3,1,1
105,84427543,1009,190,2101,808,-23,-148,-45,0.0927734375,1.02587890625,0.39453125,-0.701219512195122,-4.51219512195122,-1.3719512195121952,0.018,-0.025,1.002,-0.18,0.11,-3.84,0.61,-1.12,1.52,1459,1459,1500,1500,0.84,0,3,1,1
106,84428551,1008,58,1960,1143,-44,27,-69,0.0283203125,0.95703125,0.55810546875,-1.3414634146341464,0.8231707317073171,-2.103658536585366,-0.073,-0.026,0.995,0.57,0.39,-2.19,0.61,-1.12,1.51,1459,1459,1500,1500,5.4,0,3,1,1
107,84429559,1008,-141,1914,554,-12,192,-92,-0.06884765625,0.9345703125,0.2705078125,-0.3658536585365854,5.853658536585367,-2.804878048780488,-0.104,-0.01,0.985,1.31,0.25,0.58,0.61,-1.11,1.51,1459,1459,1500,1500,7.17,0,3,1,1
108,84430567,1008,-164,1930,-127,7,267,-68,-0.080078125,0.9423828125,-0.06201171875,0.2134146341463415,8.140243902439025,-2.073170731707317,-0.078,0.003,0.979,1.56,-0.03,3.19,0.61,-1.11,1.52,1459,1459,1500,1500,5.74,0,3,1,1
109,84431575,1008,-208,1951,-542,-30,227,14,-0.1015625,0.95263671875,-0.2646484375,-0.9146341463414634,6.920731707317074,0.426829268292683,-0.023,0.019,0.974,0.88,0.15,4.53,0.61,-1.11,1.52,1459,1459,1500,1500,3.05,0,3,1,1
110,84432583,1008,-126,2075,-881,-54,99,92,-0.0615234375,1.01318359375,-0.43017578125,-1.6463414634146343,3.0182926829268295,2.804878048780488,0.048,0.025,0.98,-0.35,0.51,4.11,0.61,-1.11,1.53,1459,1459,1500,1500,2.71,0,3,1,1
111,84433590,1007,238,2135,-989,-31,-79,126,0.1162109375,1.04248046875,-0.48291015625,-0.9451219512195123,-2.408536585365854,3.8414634146341466,0.117,0.003,0.99,-1.52,0.52,2.01,0.61,-1.11,1.53,1459,1459,1500,1500,5.69,0,3,1,1
112,84434597,1007,501,2071,-567,-5,-236,104,0.24462890625,1.01123046875,-0.27685546875,-0.15243902439024393,-7.195121951219513,3.1707317073170733,0.142,-0.036,0.993,-2.08,0.27,-0.97,0.61,-1.12,1.53,1459,1459,1500,1500,7.19,0,3,1,1
113,84435605,1008,403,2080,37,7,-293,30,0.19677734375,1.015625,0.01806640625,0.2134146341463415,-8.932926829268293,0.9146341463414634,0.117,-0.061,0.997,-1.7,-0.02,-3.55,0.61,-1.12,1.52,1459,1459,1500,1500,6.27,0,3,1,1
114,84436612,1007,73,2171,621,0,-214,-63,0.03564453125,1.06005859375,0.30322265625,0.0,-6.52439024390244,-1.9207317073170733,0.05,-0.057,1.007,-0.49,-0.14,-4.45,0.62,-1.12,1.52,1459,1459,1500,1500,3.16,0,3,1,1
115,84437621,1009,-212,2045,1141,-49,-55,-112,-0.103515625,0.99853515625,0.55712890625,-1.4939024390243905,-1.676829268292683,-3.414634146341464,-0.045,-0.031,1.005,0.8,0.26,-3.44,0.62,-1.12,1.52,1459,1459,1500,1500,3.92,0,3,1,1
116,84438629,1008,-365,1865,847,-45,112,-108,-0.17822265625,0.91064453125,0.41357421875,-1.3719512195121952,3.414634146341464,-3.2926829268292686,-0.104,0.001,0.99,1.63,0.5,-1.06,0.61,-1.11,1.52,1459,1459,1500,1500,7.16,0,3,1,1
117,84439637,1008,-446,1909,30,14,237,-80,-0.2177734375,0.93212890625,0.0146484375,0.426829268292683,7.225609756097562,-2.439024390243903,-0.09,0.035,0.981,1.89,0.06,1.79,0.61,-1.11,1.52,1459,1459,1500,1500,6.91,0,3,1,1
118,84440646,1009,-347,1931,-422,13,249,-21,-0.16943359375,0.94287109375,-0.2060546875,0.39634146341463417,7.591463414634147,-0.6402439024390244,-0.043,0.056,0.975,1.46,-0.22,3.82,0.61,-1.11,1.52,1459,1459,1500,1500,5.37,0,3,1,1
119,84441654,1008,-27,1981,-682,-44,158,60,-0.01318359375,0.96728515625,-0.3330078125,-1.3414634146341464,4.817073170731708,1.829268292682927,0.016,0.049,0.974,0.35,0.16,4.24,0.61,-1.11,1.53,1459,1459,1500,1500,3.55,0,3,1,1
120,84442662,1008,326,2130,-967,-74,24,126,0.1591796875,1.0400390625,-0.47216796875,-2.25609756097561,0.7317073170731708,3.8414634146341466,0.088,0.016,0.984,-1.05,0.73,3.15,0.61,-1.11,1.53,1459,1459,1500,1500,4.34,0,3,1,1
121,84443671,1009,597,2122,-848,-46,-135,142,0.29150390625,1.0361328125,-0.4140625,-1.402439024390244,-4.115853658536586,4.329268292682928,0.14,-0.032,0.992,-2.15,0.82,0.81,0.61,-1.11,1.53,1459,1459,1500,1500,7.04,0,3,1,1
122,84444679,1008,672,2087,-81,-20,-245,95,0.328125,1.01904296875,-0.03955078125,-0.6097560975609757,-7.469512195121952,2.8963414634146343,0.124,-0.079,0.996,-2.41,0.62,-1.87,0.61,-1.12,1.53,1459,1459,1500,1500,7.14,0,3,1,1
123,84445687,1008,370,2177,520,9,-221,6,0.1806640625,1.06298828125,0.25390625,0.27439024390243905,-6.737804878048781,0.1829268292682927,0.064,-0.095,1.007,-1.67,0.19,-3.41,0.62,-1.12,1.52,1459,1459,1500,1500,5.4,0,3,1,1
124,84446696,1009,-175,2196,699,29,-104,-99,-0.08544921875,1.072265625,0.34130859375,0.8841463414634148,-3.1707317073170733,-3.0182926829268295,0.0,-0.066,1.017,-0.11,-0.3,-3.24,0.62,-1.12,1.52,1459,1459,1500,1500,3.31,0,3,1,1
125,84447704,1008,-521,2055,836,-17,29,-161,-0.25439453125,1.00341796875,0.408203125,-0.5182926829268293,0.8841463414634148,-4.908536585365854,-0.064,-0.015,1.015,1.56,-0.15,-1.77,0.62,-1.11,1.52,1459,1459,1500,1500,4.77,0,3,1,1
126,84448713,1009,-543,1919,350,-36,136,-136,-0.26513671875,0.93701171875,0.1708984375,-1.0975609756097562,4.146341463414634,-4.146341463414634,-0.081,0.028,1.002,2.41,0.12,0.29,0.61,-1.11,1.52,1459,1459,1500,1500,6.19,0,3,1,1
127,84449720,1007,-531,1859,-399,7,167,-58,-0.25927734375,0.90771484375,-0.19482421875,0.2134146341463415,5.091463414634147,-1.7682926829268295,-0.037,0.065,0.987,2.19,-0.11,1.98,0.61,-1.11,1.52,1459,1459,1500,1500,5.5,0,3,1,1
128,84450728,1008,-394,1875,-601,19,103,27,-0.1923828125,0.91552734375,-0.29345703125,0.5792682926829269,3.1402439024390247,0.8231707317073171,0.014,0.085,0.976,1.17,-0.4,2.45,0.61,-1.11,1.52,1459,1459,1500,1500,5.63,0,3,1,1
129,84451736,1008,147,2052,-672,-28,-27,105,0.07177734375,1.001953125,-0.328125,-0.853658536585366,-0.8231707317073171,3.2012195121951224,0.064,0.06,0.98,-0.29,-0.11,1.44,0.6,-1.11,1.53,1459,1459,1500,1500,4.91,0,3,1,1
130,84452745,1009,653,2184,-656,-73,-150,157,0.31884765625,1.06640625,-0.3203125,-2.225609756097561,-4.573170731707317,4.786585365853659,0.105,0.0,0.994,-1.8,0.53,-0.47,0.6,-1.11,1.52,1459,1459,1500,1500,4.96,0,3,1,1
131,84453753,1008,726,2128,-325,-55,-197,144,0.3544921875,1.0390625,-0.15869140625,-1.676829268292683,-6.00609756097561,4.390243902439025,0.113,-0.055,1.001,-2.67,0.78,-2.24,0.61,-1.11,1.52,1459,1459,1500,1500,5.93,0,3,1,1
132,84454762,1009,623,2099,208,-1,-172,66,0.30419921875,1.02490234375,0.1015625,-0.030487804878048783,-5.2439024390243905,2.0121951219512195,0.079,-0.095,1.004,-2.46,0.4,-3.15,0.61,-1.12,1.52,1459,1459,1500,1500,5.87,0,3,1,1
133,84455770,1008,340,2117,693,26,-84,-37,0.166015625,1.03369140625,0.33837890625,0.7926829268292683,-2.5609756097560976,-1.128048780487805,0.013,-0.106,1.009,-1.26,-0.13,-2.87,0.62,-1.12,1.52,1459,1459,1500,1500,5.41,0,3,1,1
134,84456778,1008,-214,2112,772,3,34,-143,-0.1044921875,1.03125,0.376953125,0.09146341463414635,1.0365853658536586,-4.359756097560976,-0.048,-0.073,1.012,0.6,-0.24,-1.47,0.62,-1.11,1.51,1459,1459,1500,1500,5.21,0,3,1,1
135,84457787,1009,-614,2097,345,-25,118,-199,-0.2998046875,1.02392578125,0.16845703125,-0.7621951219512195,3.5975609756097566,-6.067073170731708,-0.067,-0.013,1.014,2.42,-0.04,0.3,0.62,-1.11,1.52,1459,1459,1500,1500,4.94,0,3,1,1
136,84458795,1008,-723,1971,-248,4,160,-141,-0.35302734375,0.96240234375,-0.12109375,0.12195121951219513,4.878048780487806,-4.298780487804878,-0.037,0.044,1.006,3.04,-0.2,1.92,0.61,-1.11,1.52,1459,1459,1500,1500,4.53,0,3,1,1
137,84459803,1008,-691,1760,-552,41,128,-30,-0.33740234375,0.859375,-0.26953125,1.25,3.9024390243902443,-0.9146341463414634,0.01,0.09,0.983,2.32,-0.68,2.67,0.61,-1.11,1.52,1459,1459,1500,1500,5.91,0,3,1,1
138,84460811,1008,-217,1808,-521,8,8,53,-0.10595703125,0.8828125,-0.25439453125,0.24390243902439027,0.24390243902439027,1.6158536585365855,0.049,0.093,0.967,1.0,-0.66,1.94,0.6,-1.11,1.52,1459,1459,1500,1500,6.37,0,3,1,1
139,84461819,1008,553,2071,-326,-58,-112,124,0.27001953125,1.01123046875,-0.1591796875,-1.7682926829268295,-3.414634146341464,3.780487804878049,0.066,0.035,0.974,-0.6,0.01,0.24,0.6,-1.11,1.52,1459,1459,1500,1500,3.9,0,3,1,1
140,84462827,1008,783,2136,-216,-75,-161,165,0.38232421875,1.04296875,-0.10546875,-2.2865853658536586,-4.908536585365854,5.0304878048780495,0.073,-0.03,0.985,-2.09,0.64,-1.39,0.6,-1.11,1.52,1459,1459,1500,1500,3.33,0,3,1,1
141,84463836,1009,547,2105,-90,-30,-119,123,0.26708984375,1.02783203125,-0.0439453125,-0.9146341463414634,-3.628048780487805,3.7500000000000004,0.068,-0.068,0.991,-2.65,0.6,-2.05,0.61,-1.12,1.52,1459,1459,1500,1500,4.35,0,3,1,1
142,84464844,1008,457,2165,392,0,-36,33,0.22314453125,1.05712890625,0.19140625,0.0,-1.0975609756097562,1.0060975609756098,0.027,-0.092,1.002,-2.11,0.26,-1.64,0.61,-1.12,1.52,1459,1459,1500,1500,4.69,0,3,1,1
143,84465850,1006,224,2150,706,-2,51,-63,0.109375,1.0498046875,0.3447265625,-0.06097560975609757,1.5548780487804879,-1.9207317073170733,-0.031,-0.095,1.009,-0.76,0.06,-0.48,0.62,-1.11,1.52,1459,1459,1500,1500,5.6,0,3,1,1
144,84466856,1006,-289,2106,461,-7,122,-164,-0.14111328125,1.0283203125,0.22509765625,-0.2134146341463415,3.7195121951219514,-5.0,-0.062,-0.057,1.012,1.15,-0.01,1.0,0.62,-1.11,1.52,1459,1459,1500,1500,5.34,0,3,1,1
145,84467865,1009,-575,2107,26,-8,139,-190,-0.28076171875,1.02880859375,0.0126953125,-0.24390243902439027,4.237804878048781,-5.7926829268292686,-0.054,-0.004,1.015,2.69,-0.06,2.17,0.61,-1.11,1.52,1459,1459,1500,1500,4.21,0,3,1,1
146,84468872,1007,-709,1907,-442,22,115,-95,-0.34619140625,0.93115234375,-0.2158203125,0.6707317073170732,3.50609756097561,-2.8963414634146343,-0.011,0.051,1.001,2.75,-0.39,2.7,0.61,-1.11,1.52,1459,1459,1500,1500,3.97,0,3,1,1
147,84469880,1008,-694,1675,-664,53,36,21,-0.3388671875,0.81787109375,-0.32421875,1.6158536585365855,1.0975609756097562,0.6402439024390244,0.041,0.096,0.972,1.61,-0.93,2.25,0.6,-1.11,1.52,1459,1459,1500,1500,6.44,0,3,1,1
148,84470889,1009,-32,1906,-338,10,-108,91,-0.015625,0.9306640625,-0.1650390625,0.30487804878048785,-3.2926829268292686,2.774390243902439,0.061,0.084,0.966,0.13,-0.85,0.48,0.6,-1.11,1.53,1459,1459,1500,1500,6.11,0,3,1,1
149,84471896,1007,748,2168,37,-70,-209,142,0.365234375,1.05859375,0.01806640625,-2.1341463414634148,-6.371951219512195,4.329268292682928,0.048,0.012,0.98,-1.36,0.01,-1.72,0.6,-1.11,1.52,1459,1459,1500,1500,2.19,0,3,1,1
150,84472904,1008,718,2083,-27,-69,-199,139,0.3505859375,1.01708984375,-0.01318359375,-2.103658536585366,-6.067073170731708,4.237804878048781,0.043,-0.044,0.986,-2.33,0.57,-3.08,0.61,-1.11,1.52,1459,1459,1500,1500,2.42,0,3,1,1
151,84473912,1008,413,2100,89,-10,-101,64,0.20166015625,1.025390625,0.04345703125,-0.30487804878048785,-3.079268292682927,1.9512195121951221,0.029,-0.069,0.992,-2.21,0.35,-2.99,0.61,-1.11,1.52,1459,1459,1500,1500,3.45,0,3,1,1
152,84474921,1009,346,2213,576,-8,40,2,0.1689453125,1.08056640625,0.28125,-0.24390243902439027,1.2195121951219514,0.06097560975609757,-0.019,-0.085,1.006,-1.49,0.18,-1.49,0.61,-1.11,1.52,1459,1459,1500,1500,4.8,0,3,1,1
153,84475927,1006,-25,2166,455,-27,134,-65,-0.01220703125,1.0576171875,0.22216796875,-0.8231707317073171,4.085365853658537,-1.981707317073171,-0.052,-0.069,1.014,-0.34,0.26,0.45,0.62,-1.11,1.52,1459,1459,1500,1500,5.24,0,3,1,1
154,84476936,1009,-375,2057,-193,8,136,-171,-0.18310546875,1.00439453125,-0.09423828125,0.24390243902439027,4.146341463414634,-5.213414634146342,-0.028,-0.029,1.013,1.5,-0.03,1.77,0.61,-1.11,1.52,1459,1459,1500,1500,2.94,0,3,1,1
155,84477944,1008,-301,1988,-471,41,111,-176,-0.14697265625,0.970703125,-0.22998046875,1.25,3.3841463414634148,-5.365853658536586,0.012,-0.001,1.006,2.79,-0.57,2.4,0.61,-1.11,1.52,1459,1459,1500,1500,0.66,0,3,1,1
156,84478952,1008,-506,1821,-503,44,56,-50,-0.2470703125,0.88916015625,-0.24560546875,1.3414634146341464,1.707317073170732,-1.524390243902439,0.049,0.037,0.987,2.36,-0.96,2.25,0.61,-1.11,1.52,1459,1459,1500,1500,3.29,0,3,1,1
157,84479961,1009,-628,1705,-524,28,-75,50,-0.306640625,0.83251953125,-0.255859375,0.853658536585366,-2.2865853658536586,1.524390243902439,0.082,0.08,0.963,1.05,-1.05,0.82,0.6,-1.11,1.52,1459,1459,1500,1500,6.54,0,3,1,1
158,84480969,1008,97,2010,-227,-32,-213,101,0.04736328125,0.9814453125,-0.11083984375,-0.9756097560975611,-6.4939024390243905,3.079268292682927,0.086,0.06,0.966,-0.33,-0.5,-1.53,0.6,-1.12,1.52,1459,1459,1500,1500,5.77,0,3,1,1
159,84481977,1008,651,2252,215,-81,-249,135,0.31787109375,1.099609375,0.10498046875,-2.4695121951219514,-7.591463414634147,4.115853658536586,0.056,0.0,0.987,-1.6,0.35,-3.47,0.6,-1.12,1.52,1459,1459,1500,1500,2.22,0,3,1,1
160,84482986,1009,447,2112,437,-54,-151,90,0.21826171875,1.03125,0.21337890625,-1.6463414634146343,-4.603658536585367,2.7439024390243905,0.013,-0.034,0.994,-1.99,0.65,-3.76,0.61,-1.12,1.51,1459,1459,1500,1500,1.42,0,3,1,1
161,84483994,1008,394,2083,525,-25,10,3,0.1923828125,1.01708984375,0.25634765625,-0.7621951219512195,0.30487804878048785,0.09146341463414635,-0.029,-0.059,0.997,-1.36,0.55,-2.31,0.61,-1.11,1.51,1459,1459,1500,1500,3.96,0,3,1,1
162,84485002,1008,380,2118,450,-28,154,-31,0.185546875,1.0341796875,0.2197265625,-0.853658536585366,4.695121951219512,-0.9451219512195123,-0.059,-0.079,1.003,-0.59,0.52,0.11,0.61,-1.11,1.51,1459,1459,1500,1500,5.97,0,3,1,1
163,84486011,1009,-172,2070,-5,-5,215,-68,-0.083984375,1.0107421875,-0.00244140625,-0.15243902439024393,6.5548780487804885,-2.073170731707317,-0.049,-0.053,1.004,0.28,0.26,2.35,0.61,-1.11,1.51,1459,1459,1500,1500,4.63,0,3,1,1
164,84487019,1008,-467,2037,-510,41,172,-140,-0.22802734375,0.99462890625,-0.2490234375,1.25,5.2439024390243905,-4.2682926829268295,-0.002,-0.008,1.003,1.61,-0.37,3.4,0.61,-1.11,1.52,1459,1459,1500,1500,1.25,0,3,1,1
165,84488027,1008,-203,1907,-553,50,95,-120,-0.09912109375,0.93115234375,-0.27001953125,1.524390243902439,2.8963414634146343,-3.658536585365854,0.04,0.008,0.991,2.28,-0.88,3.32,0.61,-1.11,1.52,1459,1459,1500,1500,1.65,0,3,1,1
166,84489036,1009,-269,1807,-494,33,-7,3,-0.13134765625,0.88232421875,-0.2412109375,1.0060975609756098,-0.2134146341463415,0.09146341463414635,0.072,0.027,0.974,1.48,-1.06,2.22,0.6,-1.11,1.52,1459,1459,1500,1500,3.86,0,3,1,1
167,84490044,1008,-367,1996,-495,23,-156,82,-0.17919921875,0.974609375,-0.24169921875,0.701219512195122,-4.75609756097561,2.5,0.099,0.051,0.974,0.14,-1.07,-0.02,0.6,-1.12,1.52,1459,1459,1500,1500,5.95,0,3,1,1
168,84491052,1008,171,2226,-81,-29,-274,102,0.08349609375,1.0869140625,-0.03955078125,-0.8841463414634148,-8.353658536585366,3.1097560975609757,0.089,0.03,0.992,-0.95,-0.54,-2.72,0.6,-1.12,1.52,1459,1459,1500,1500,4.69,0,3,1,1
169,84492061,1009,529,2142,495,-74,-264,96,0.25830078125,1.0458984375,0.24169921875,-2.25609756097561,-8.048780487804878,2.9268292682926833,0.037,-0.015,1.0,-1.61,0.25,-4.41,0.6,-1.12,1.52,1459,1459,1500,1500,1.05,0,3,1,1
170,84493069,1008,307,2025,711,-45,-103,26,0.14990234375,0.98876953125,0.34716796875,-1.3719512195121952,-3.1402439024390247,0.7926829268292683,-0.023,-0.036,0.998,-1.34,0.49,-3.9,0.61,-1.12,1.51,1459,1459,1500,1500,2.89,0,3,1,1
171,84494077,1008,309,2051,603,-15,106,-59,0.15087890625,1.00146484375,0.29443359375,-0.4573170731707317,3.231707317073171,-1.7987804878048783,-0.066,-0.054,0.999,-0.3,0.35,-1.42,0.61,-1.11,1.51,1459,1459,1500,1500,5.54,0,3,1,1
172,84495086,1009,450,2011,334,-24,237,-59,0.2197265625,0.98193359375,0.1630859375,-0.7317073170731708,7.225609756097562,-1.7987804878048783,-0.081,-0.081,0.996,0.39,0.34,1.55,0.61,-1.11,1.51,1459,1459,1500,1500,7.06,0,3,1,1
173,84496094,1008,-50,1967,-274,-12,273,-30,-0.0244140625,0.96044921875,-0.1337890625,-0.3658536585365854,8.323170731707318,-0.9146341463414634,-0.047,-0.064,0.99,0.56,0.22,3.9,0.61,-1.11,1.52,1459,1459,1500,1500,4.95,0,3,1,1
174,84497102,1008,-573,1959,-980,49,183,-51,-0.27978515625,0.95654296875,-0.478515625,1.4939024390243905,5.579268292682928,-1.5548780487804879,0.035,-0.009,0.985,0.88,-0.48,4.55,0.61,-1.11,1.52,1459,1459,1500,1500,0.96,0,3,1,1
175,84498111,1009,-305,1953,-930,68,-6,-46,-0.14892578125,0.95361328125,-0.4541015625,2.073170731707317,-0.1829268292682927,-1.402439024390244,0.102,0.015,0.98,1.05,-1.14,3.05,0.61,-1.11,1.52,1459,1459,1500,1500,5.06,0,3,1,1
176,84499118,1007,-2,1992,-363,10,-143,41,-0.0009765625,0.97265625,-0.17724609375,0.30487804878048785,-4.359756097560976,1.25,0.114,0.013,0.979,0.27,-0.99,0.66,0.61,-1.12,1.52,1459,1459,1500,1500,5.69,0,3,1,1
177,84500125,1007,-130,2105,-98,-33,-211,101,-0.0634765625,1.02783203125,-0.0478515625,-1.0060975609756098,-6.432926829268293,3.079268292682927,0.103,0.021,0.986,-0.85,-0.45,-1.62,0.61,-1.12,1.52,1459,1459,1500,1500,5.2,0,3,1,1
178,84501133,1008,-10,2201,207,-42,-259,74,-0.0048828125,1.07470703125,0.10107421875,-1.2804878048780488,-7.896341463414635,2.25609756097561,0.071,0.018,1.0,-1.33,0.0,-3.63,0.61,-1.12,1.52,1459,1459,1500,1500,3.38,0,3,1,1
179,84502141,1008,332,2099,791,-48,-191,22,0.162109375,1.02490234375,0.38623046875,-1.4634146341463417,-5.823170731707317,0.6707317073170732,-0.001,-0.01,1.004,-1.11,0.35,-4.27,0.61,-1.12,1.52,1459,1459,1500,1500,1.21,0,3,1,1
180,84503149,1008,307,2006,893,-31,8,-39,0.14990234375,0.9794921875,0.43603515625,-0.9451219512195123,0.24390243902439027,-1.1890243902439026,-0.07,-0.032,1.0,-0.35,0.41,-2.67,0.61,-1.12,1.51,1459,1459,1500,1500,5.29,0,3,1,1
181,84504158,1009,226,2028,506,-11,199,-87,0.1103515625,0.990234375,0.2470703125,-0.3353658536585366,6.067073170731708,-2.6524390243902443,-0.098,-0.044,0.998,0.64,0.25,0.33,0.61,-1.11,1.51,1459,1459,1500,1500,7.02,0,3,1,1
182,84505166,1008,231,1998,66,-21,292,-49,0.11279296875,0.9755859375,0.0322265625,-0.6402439024390244,8.902439024390244,-1.4939024390243905,-0.087,-0.055,0.995,0.92,0.25,3.28,0.61,-1.11,1.52,1459,1459,1500,1500,6.67,0,3,1,1
183,84506174,1008,-192,1967,-657,-12,250,20,-0.09375,0.96044921875,-0.32080078125,-0.3658536585365854,7.621951219512196,0.6097560975609757,-0.023,-0.031,0.989,0.4,0.15,4.82,0.61,-1.11,1.52,1459,1459,1500,1500,2.74,0,3,1,1
184,84507182,1008,-515,1995,-1140,44,85,27,-0.25146484375,0.97412109375,-0.556640625,1.3414634146341464,2.5914634146341466,0.8231707317073171,0.068,0.013,0.987,-0.01,-0.47,4.16,0.61,-1.11,1.53,1459,1459,1500,1500,3.18,0,3,1,1
185,84508191,1009,-168,2054,-796,48,-100,37,-0.08203125,1.0029296875,-0.388671875,1.4634146341463417,-3.048780487804878,1.128048780487805,0.119,0.024,0.989,-0.39,-0.93,1.83,0.61,-1.12,1.53,1459,1459,1500,1500,6.11,0,3,1,1
186,84509198,1007,43,2044,-342,-10,-233,66,0.02099609375,0.998046875,-0.1669921875,-0.30487804878048785,-7.103658536585367,2.0121951219512195,0.127,0.016,0.991,-0.94,-0.65,-1.06,0.61,-1.12,1.53,1459,1459,1500,1500,6.39,0,3,1,1
187,84510207,1009,-2,2084,-6,-30,-288,38,-0.0009765625,1.017578125,-0.0029296875,-0.9146341463414634,-8.78048780487805,1.1585365853658538,0.107,0.014,0.995,-1.02,-0.26,-3.55,0.61,-1.12,1.52,1459,1459,1500,1500,5.23,0,3,1,1
188,84511213,1006,274,2135,661,-41,-240,-13,0.1337890625,1.04248046875,0.32275390625,-1.25,-7.317073170731708,-0.39634146341463417,0.039,-0.009,1.002,-0.55,0.11,-4.72,0.61,-1.12,1.52,1459,1459,1500,1500,1.11,0,3,1,1
189,84512221,1008,344,2009,1091,-47,-86,-47,0.16796875,0.98095703125,0.53271484375,-1.4329268292682928,-2.6219512195121952,-1.4329268292682928,-0.051,-0.034,0.999,0.1,0.42,-3.93,0.61,-1.12,1.51,1459,1459,1500,1500,4.29,0,3,1,1
190,84513230,1009,37,2003,694,-8,117,-88,0.01806640625,0.97802734375,0.3388671875,-0.24390243902439027,3.5670731707317076,-2.682926829268293,-0.097,-0.031,0.995,0.95,0.23,-1.33,0.61,-1.12,1.51,1459,1459,1500,1500,6.8,0,3,1,1
191,84514237,1007,-118,2078,116,2,261,-81,-0.0576171875,1.0146484375,0.056640625,0.06097560975609757,7.957317073170732,-2.4695121951219514,-0.09,-0.017,0.998,1.45,0.0,1.85,0.61,-1.11,1.51,1459,1459,1500,1500,6.32,0,3,1,1
192,84515245,1008,-276,1996,-331,-35,254,5,-0.134765625,0.974609375,-0.16162109375,-1.0670731707317074,7.743902439024391,0.15243902439024393,-0.05,0.006,0.995,0.91,0.22,3.91,0.61,-1.11,1.52,1459,1459,1500,1500,4.15,0,3,1,1
193,84516253,1008,-306,1945,-939,-35,101,80,-0.1494140625,0.94970703125,-0.45849609375,-1.0670731707317074,3.079268292682927,2.439024390243903,0.03,0.029,0.987,-0.21,0.37,3.72,0.61,-1.11,1.52,1459,1459,1500,1500,2.39,0,3,1,1
194,84517262,1009,138,2013,-1127,-2,-88,98,0.0673828125,0.98291015625,-0.55029296875,-0.06097560975609757,-2.682926829268293,2.987804878048781,0.112,0.013,0.987,-1.15,0.13,1.66,0.61,-1.11,1.52,1459,1459,1500,1500,5.57,0,3,1,1
195,84518270,1008,504,2060,-576,-9,-219,86,0.24609375,1.005859375,-0.28125,-0.27439024390243905,-6.676829268292684,2.6219512195121952,0.139,-0.027,0.99,-1.64,0.05,-1.03,0.61,-1.12,1.52,1459,1459,1500,1500,6.96,0,3,1,1
196,84519277,1007,374,2076,-56,-15,-244,42,0.1826171875,1.013671875,-0.02734375,-0.4573170731707317,-7.439024390243903,1.2804878048780488,0.121,-0.051,0.993,-1.53,0.05,-3.09,0.61,-1.12,1.52,1459,1459,1500,1500,6.31,0,3,1,1
197,84520286,1009,27,2141,437,0,-183,-29,0.01318359375,1.04541015625,0.21337890625,0.0,-5.579268292682928,-0.8841463414634148,0.068,-0.045,1.001,-0.73,-0.09,-3.83,0.61,-1.12,1.52,1459,1459,1500,1500,3.42,0,3,1,1
198,84521294,1008,-202,2057,1070,-30,-98,-85,-0.0986328125,1.00439453125,0.5224609375,-0.9146341463414634,-2.987804878048781,-2.5914634146341466,-0.025,-0.022,1.002,0.37,0.11,-3.46,0.61,-1.12,1.51,1459,1459,1500,1500,2.66,0,3,1,1
199,84522302,1008,-212,1880,931,-45,40,-103,-0.103515625,0.91796875,0.45458984375,-1.3719512195121952,1.2195121951219514,-3.1402439024390247,-0.093,-0.002,0.988,1.29,0.4,-1.81,0.61,-1.12,1.51,1459,1459,1500,1500,6.53,0,3,1,1
200,84523311,1009,-268,1917,189,-7,215,-88,-0.130859375,0.93603515625,0.09228515625,-0.2134146341463415,6.5548780487804885,-2.682926829268293,-0.093,0.018,0.98,1.74,0.2,1.07,0.61,-1.11,1.51,1459,1459,1500,1500,6.76,0,3,1,1
201,84524319,1008,-421,1993,-264,-1,309,-37,-0.20556640625,0.97314453125,-0.12890625,-0.030487804878048783,9.420731707317074,-1.128048780487805,-0.057,0.048,0.979,1.53,0.01,3.95,0.61,-1.11,1.52,1459,1459,1500,1500,5.65,0,3,1,1
202,84525327,1008,-257,2014,-627,-45,256,50,-0.12548828125,0.9833984375,-0.30615234375,-1.3719512195121952,7.8048780487804885,1.524390243902439,0.0,0.06,0.98,0.5,0.33,5.32,0.6,-1.11,1.52,1459,1459,1500,1500,4.28,0,3,1,1
203,84526335,1008,211,2077,-995,-64,66,129,0.10302734375,1.01416015625,-0.48583984375,-1.9512195121951221,2.0121951219512195,3.932926829268293,0.076,0.034,0.985,-0.98,0.74,4.3,0.6,-1.11,1.53,1459,1459,1500,1500,4.24,0,3,1,1
204,84527344,1009,626,2068,-943,-28,-135,143,0.3056640625,1.009765625,-0.46044921875,-0.853658536585366,-4.115853658536586,4.359756097560976,0.137,-0.019,0.989,-2.12,0.64,1.57,0.61,-1.11,1.53,1459,1459,1500,1500,6.83,0,3,1,1
205,84528352,1008,761,2034,-352,-3,-229,92,0.37158203125,0.9931640625,-0.171875,-0.09146341463414635,-6.981707317073171,2.804878048780488,0.143,-0.075,0.989,-2.35,0.33,-1.19,0.61,-1.12,1.53,1459,1459,1500,1500,8.01,0,3,1,1
206,84529360,1008,427,2134,390,6,-207,2,0.20849609375,1.0419921875,0.1904296875,0.1829268292682927,-6.310975609756098,0.06097560975609757,0.09,-0.096,0.998,-1.59,0.02,-2.82,0.61,-1.12,1.52,1459,1459,1500,1500,6.34,0,3,1,1
207,84530369,1009,-166,2203,921,0,-97,-96,-0.0810546875,1.07568359375,0.44970703125,0.0,-2.957317073170732,-2.9268292682926833,0.004,-0.068,1.01,-0.09,-0.11,-2.78,0.62,-1.12,1.52,1459,1459,1500,1500,3.36,0,3,1,1
208,84531377,1008,-470,2030,955,-26,25,-137,-0.2294921875,0.9912109375,0.46630859375,-0.7926829268292683,0.7621951219512195,-4.176829268292683,-0.07,-0.021,1.007,1.33,0.05,-1.5,0.62,-1.12,1.52,1459,1459,1500,1500,5.13,0,3,1,1
209,84532421,1044,-532,1892,371,-14,104,-109,-0.259765625,0.923828125,0.18115234375,-0.426829268292683,3.1707317073170733,-3.3231707317073176,-0.087,0.023,0.994,1.98,0.04,0.14,0.61,-1.11,1.52,1459,1459,1500,1500,6.47,0,3,1,1
210,84533394,973,-591,1929,-248,14,151,-58,-0.28857421875,0.94189453125,-0.12109375,0.426829268292683,4.603658536585367,-1.7682926829268295,-0.054,0.065,0.985,1.9,-0.24,1.72,0.61,-1.11,1.52,1459,1459,1500,1500,6.15,0,3,1,1
211,84534402,1008,-365,1892,-613,-5,143,11,-0.17822265625,0.923828125,-0.29931640625,-0.15243902439024393,4.359756097560976,0.3353658536585366,0.001,0.083,0.976,1.15,-0.24,2.69,0.6,-1.11,1.52,1459,1459,1500,1500,5.59,0,3,1,1
212,84535410,1008,124,1979,-818,-48,44,98,0.060546875,0.96630859375,-0.3994140625,-1.4634146341463417,1.3414634146341464,2.987804878048781,0.064,0.06,0.974,-0.24,0.19,2.32,0.6,-1.11,1.53,1459,1459,1500,1500,4.94,0,3,1,1
213,84536419,1009,551,2195,-738,-61,-117,158,0.26904296875,1.07177734375,-0.3603515625,-1.8597560975609757,-3.5670731707317076,4.817073170731708,0.111,0.008,0.989,-1.77,0.62,0.44,0.6,-1.11,1.53,1459,1459,1500,1500,5.42,0,3,1,1
214,84537427,1008,812,2172,-383,-43,-251,154,0.396484375,1.060546875,-0.18701171875,-1.3109756097560976,-7.652439024390245,4.695121951219512,0.123,-0.055,1.001,-2.76,0.71,-2.17,0.61,-1.12,1.52,1459,1459,1500,1500,6.44,0,3,1,1
215,84538435,1008,739,2108,176,-18,-256,81,0.36083984375,1.029296875,0.0859375,-0.5487804878048781,-7.8048780487804885,2.4695121951219514,0.09,-0.104,1.005,-2.67,0.53,-3.97,0.61,-1.12,1.52,1459,1459,1500,1500,6.63,0,3,1,1
216,84539442,1007,321,2150,574,20,-135,-30,0.15673828125,1.0498046875,0.2802734375,0.6097560975609757,-4.115853658536586,-0.9146341463414634,0.031,-0.112,1.012,-1.47,0.01,-3.93,0.62,-1.12,1.52,1459,1459,1500,1500,5.76,0,3,1,1
217,84540451,1009,-222,2129,719,24,16,-139,-0.1083984375,1.03955078125,0.35107421875,0.7317073170731708,0.48780487804878053,-4.237804878048781,-0.029,-0.077,1.016,0.42,-0.36,-2.36,0.62,-1.12,1.51,1459,1459,1500,1500,4.65,0,3,1,1
218,84541459,1008,-624,2061,619,-17,123,-185,-0.3046875,1.00634765625,0.30224609375,-0.5182926829268293,3.7500000000000004,-5.640243902439025,-0.072,-0.016,1.015,2.16,-0.2,-0.23,0.62,-1.11,1.51,1459,1459,1500,1500,5.21,0,3,1,1
219,84542468,1009,-714,1937,-89,-12,153,-132,-0.3486328125,0.94580078125,-0.04345703125,-0.3658536585365854,4.664634146341464,-4.024390243902439,-0.054,0.041,1.004,2.77,-0.14,1.49,0.61,-1.11,1.51,1459,1459,1500,1500,5.14,0,3,1,1
220,84543475,1007,-626,1784,-668,12,102,-37,-0.3056640625,0.87109375,-0.326171875,0.3658536585365854,3.1097560975609757,-1.128048780487805,0.006,0.083,0.983,2.21,-0.35,2.12,0.61,-1.11,1.52,1459,1459,1500,1500,5.49,0,3,1,1
221,84544484,1009,-258,1855,-556,-14,17,43,-0.1259765625,0.90576171875,-0.271484375,-0.426829268292683,0.5182926829268293,1.3109756097560976,0.048,0.089,0.97,1.03,-0.22,1.67,0.6,-1.11,1.52,1459,1459,1500,1500,6.14,0,3,1,1
222,84545492,1008,391,2083,-417,-62,-73,123,0.19091796875,1.01708984375,-0.20361328125,-1.8902439024390245,-2.225609756097561,3.7500000000000004,0.072,0.045,0.978,-0.57,0.35,0.45,0.6,-1.11,1.52,1459,1459,1500,1500,4.52,0,3,1,1
223,84546500,1008,662,2146,-341,-68,-154,174,0.3232421875,1.0478515625,-0.16650390625,-2.073170731707317,-4.695121951219512,5.3048780487804885,0.087,-0.013,0.989,-2.16,0.79,-1.18,0.6,-1.12,1.52,1459,1459,1500,1500,3.95,0,3,1,1
224,84547508,1008,574,2143,-62,-29,-150,139,0.2802734375,1.04638671875,-0.0302734375,-0.8841463414634148,-4.573170731707317,4.237804878048781,0.078,-0.055,0.998,-2.86,0.69,-2.22,0.61,-1.12,1.52,1459,1459,1500,1500,4.24,0,3,1,1
225,84548517,1009,628,2128,359,-6,-71,57,0.306640625,1.0390625,0.17529296875,-0.1829268292682927,-2.164634146341464,1.7378048780487807,0.038,-0.095,1.004,-2.49,0.39,-2.11,0.61,-1.12,1.51,1459,1459,1500,1500,4.92,0,3,1,1
226,84549525,1008,386,2017,698,-2,28,-46,0.1884765625,0.98486328125,0.3408203125,-0.06097560975609757,0.853658536585366,-1.402439024390244,-0.021,-0.11,1.001,-1.19,0.14,-1.03,0.62,-1.12,1.51,1459,1459,1500,1500,6.13,0,3,1,1
227,84550532,1007,-258,2088,644,-4,139,-162,-0.1259765625,1.01953125,0.314453125,-0.12195121951219513,4.237804878048781,-4.939024390243903,-0.068,-0.072,1.004,0.84,0.0,0.81,0.62,-1.11,1.51,1459,1459,1500,1500,6.11,0,3,1,1
228,84551539,1007,-651,2247,186,-13,183,-192,-0.31787109375,1.09716796875,0.0908203125,-0.39634146341463417,5.579268292682928,-5.853658536585367,-0.071,-0.01,1.019,2.51,0.0,2.49,0.62,-1.11,1.52,1459,1459,1500,1500,5.15,0,3,1,1
229,84552548,1009,-828,2021,-354,25,146,-102,-0.404296875,0.98681640625,-0.1728515625,0.7621951219512195,4.451219512195122,-3.1097560975609757,-0.032,0.055,1.014,2.7,-0.38,3.23,0.61,-1.11,1.52,1459,1459,1500,1500,4.77,0,3,1,1
230,84553556,1008,-736,1625,-647,71,80,9,-0.359375,0.79345703125,-0.31591796875,2.164634146341464,2.439024390243903,0.27439024390243905,0.022,0.103,0.979,1.7,-1.11,3.05,0.61,-1.11,1.52,1459,1459,1500,1500,6.64,0,3,1,1
231,84554564,1008,-33,1765,-498,21,-37,91,-0.01611328125,0.86181640625,-0.2431640625,0.6402439024390244,-1.128048780487805,2.774390243902439,0.057,0.089,0.96,0.19,-1.08,1.74,0.6,-1.11,1.52,1459,1459,1500,1500,6.36,0,3,1,1
232,84555572,1008,699,2175,-123,-62,-164,143,0.34130859375,1.06201171875,-0.06005859375,-1.8902439024390245,-5.0,4.359756097560976,0.057,0.021,0.976,-1.33,-0.22,-0.42,0.6,-1.11,1.52,1459,1459,1500,1500,2.92,0,3,1,1
233,84556580,1008,782,2214,-98,-59,-180,142,0.3818359375,1.0810546875,-0.0478515625,-1.7987804878048783,-5.487804878048781,4.329268292682928,0.056,-0.042,0.993,-2.34,0.32,-2.03,0.61,-1.11,1.52,1459,1459,1500,1500,2.81,0,3,1,1
234,84557589,1009,530,2145,-60,0,-96,87,0.2587890625,1.04736328125,-0.029296875,0.0,-2.9268292682926833,2.6524390243902443,0.051,-0.076,1.001,-2.45,0.08,-2.24,0.61,-1.12,1.52,1459,1459,1500,1500,4.2,0,3,1,1
235,84558596,1007,324,2124,463,6,-1,22,0.158203125,1.037109375,0.22607421875,0.1829268292682927,-0.030487804878048783,0.6707317073170732,0.007,-0.089,1.007,-1.86,-0.13,-1.41,0.62,-1.12,1.52,1459,1459,1500,1500,4.53,0,3,1,1
236,84559604,1008,-21,2033,545,-25,88,-72,-0.01025390625,0.99267578125,0.26611328125,-0.7621951219512195,2.682926829268293,-2.1951219512195124,-0.035,-0.073,1.005,-0.51,0.03,0.04,0.62,-1.11,1.52,1459,1459,1500,1500,4.77,0,3,1,1
237,84560611,1007,-303,2069,56,-22,149,-184,-0.14794921875,1.01025390625,0.02734375,-0.6707317073170732,4.5426829268292686,-5.609756097560976,-0.034,-0.038,1.005,1.52,0.11,1.63,0.62,-1.11,1.52,1459,1459,1500,1500,3.45,0,3,1,1
238,84561619,1008,-364,2166,-227,7,148,-180,-0.177734375,1.0576171875,-0.11083984375,0.2134146341463415,4.51219512195122,-5.487804878048781,-0.011,-0.004,1.014,2.84,-0.12,2.68,0.61,-1.11,1.52,1459,1459,1500,1500,1.79,0,3,1,1
239,84562627,1008,-645,1933,-478,48,79,-57,-0.31494140625,0.94384765625,-0.2333984375,1.4634146341463417,2.408536585365854,-1.7378048780487807,0.027,0.046,1.002,2.46,-0.7,2.67,0.61,-1.11,1.52,1459,1459,1500,1500,3.28,0,3,1,1
240,84563636,1009,-685,1683,-641,43,-76,43,-0.33447265625,0.82177734375,-0.31298828125,1.3109756097560976,-2.3170731707317076,1.3109756097560976,0.072,0.091,0.974,1.19,-1.04,1.09,0.61,-1.12,1.53,1459,1459,1500,1500,6.77,0,3,1,1
241,84564644,1008,137,1907,-253,-44,-233,102,0.06689453125,0.93115234375,-0.12353515625,-1.3414634146341464,-7.103658536585367,3.1097560975609757,0.08,0.066,0.967,-0.25,-0.37,-1.56,0.6,-1.12,1.52,1459,1459,1500,1500,5.83,0,3,1,1
242,84565652,1008,752,2129,223,-100,-246,139,0.3671875,1.03955078125,0.10888671875,-3.048780487804878,-7.500000000000001,4.237804878048781,0.05,-0.002,0.978,-1.59,0.63,-3.46,0.6,-1.12,1.52,1459,1459,1500,1500,1.91,0,3,1,1
243,84566661,1009,541,2109,316,-51,-112,95,0.26416015625,1.02978515625,0.154296875,-1.5548780487804879,-3.414634146341464,2.8963414634146343,0.018,-0.043,0.986,-2.03,0.81,-3.35,0.61,-1.12,1.52,1459,1459,1500,1500,1.92,0,3,1,1
244,84567669,1008,437,2168,421,-7,31,18,0.21337890625,1.05859375,0.20556640625,-0.2134146341463415,0.9451219512195123,0.5487804878048781,-0.017,-0.07,0.998,-1.54,0.48,-1.83,0.61,-1.12,1.52,1459,1459,1500,1500,4.02,0,3,1,1
245,84568678,1009,309,2182,509,-29,106,-20,0.15087890625,1.0654296875,0.24853515625,-0.8841463414634148,3.231707317073171,-0.6097560975609757,-0.053,-0.083,1.008,-0.83,0.48,-0.05,0.61,-1.11,1.52,1459,1459,1500,1500,5.85,0,3,1,1
246,84569685,1007,-242,2060,57,-24,137,-88,-0.1181640625,1.005859375,0.02783203125,-0.7317073170731708,4.176829268292683,-2.682926829268293,-0.049,-0.051,1.008,0.33,0.43,1.45,0.62,-1.11,1.52,1459,1459,1500,1500,4.56,0,3,1,1
247,84570693,1008,-356,2021,-482,23,135,-167,-0.173828125,0.98681640625,-0.2353515625,0.701219512195122,4.115853658536586,-5.091463414634147,-0.004,-0.015,1.005,1.92,-0.07,2.42,0.61,-1.11,1.52,1459,1459,1500,1500,1.4,0,3,1,1
248,84571702,1009,-183,2036,-434,41,106,-133,-0.08935546875,0.994140625,-0.2119140625,1.25,3.231707317073171,-4.0548780487804885,0.029,0.001,1.003,2.62,-0.6,2.78,0.61,-1.11,1.52,1459,1459,1500,1500,0.89,0,3,1,1
249,84572710,1008,-484,1868,-379,42,35,-13,-0.236328125,0.912109375,-0.18505859375,1.2804878048780488,1.0670731707317074,-0.39634146341463417,0.054,0.038,0.988,1.87,-0.96,2.29,0.61,-1.11,1.52,1459,1459,1500,1500,3.48,0,3,1,1
250,84573718,1008,-493,1825,-505,21,-132,70,-0.24072265625,0.89111328125,-0.24658203125,0.6402439024390244,-4.024390243902439,2.1341463414634148,0.084,0.07,0.973,0.52,-0.98,0.26,0.6,-1.12,1.52,1459,1459,1500,1500,6.11,0,3,1,1
251,84574727,1009,227,2099,-129,-42,-293,114,0.11083984375,1.02490234375,-0.06298828125,-1.2804878048780488,-8.932926829268293,3.4756097560975614,0.081,0.041,0.981,-0.81,-0.35,-2.72,0.6,-1.12,1.52,1459,1459,1500,1500,4.72,0,3,1,1
252,84575733,1006,602,2146,345,-71,-277,122,0.2939453125,1.0478515625,0.16845703125,-2.164634146341464,-8.445121951219512,3.7195121951219514,0.041,-0.011,0.992,-1.79,0.35,-4.54,0.61,-1.12,1.52,1459,1459,1500,1500,1.29,0,3,1,1
253,84576742,1009,384,2032,493,-31,-134,46,0.1875,0.9921875,0.24072265625,-0.9451219512195123,-4.085365853658537,1.402439024390244,-0.003,-0.039,0.992,-1.67,0.41,-4.3,0.61,-1.12,1.51,1459,1459,1500,1500,2.11,0,3,1,1
254,84577750,1008,386,2084,610,-8,27,-43,0.1884765625,1.017578125,0.2978515625,-0.24390243902439027,0.8231707317073171,-1.3109756097560976,-0.049,-0.063,0.996,-0.68,0.22,-2.5,0.61,-1.11,1.51,1459,1459,1500,1500,4.99,0,3,1,1
255,84578757,1007,379,2084,430,-27,156,-54,0.18505859375,1.017578125,0.2099609375,-0.8231707317073171,4.75609756097561,-1.6463414634146343,-0.075,-0.082,0.999,0.09,0.29,0.01,0.61,-1.11,1.51,1459,1459,1500,1500,6.78,0,3,1,1
256,84579765,1008,-174,2055,-277,-17,193,-57,-0.0849609375,1.00341796875,-0.13525390625,-0.5182926829268293,5.884146341463415,-1.7378048780487807,-0.041,-0.055,1.0,0.63,0.23,2.06,0.61,-1.11,1.51,1459,1459,1500,1500,4.35,0,3,1,1
257,84580772,1007,-496,2001,-818,35,136,-93,-0.2421875,0.97705078125,-0.3994140625,1.0670731707317074,4.146341463414634,-2.8353658536585367,0.028,-0.008,0.996,1.36,-0.33,2.84,0.61,-1.11,1.52,1459,1459,1500,1500,0.51,0,3,1,1
258,84581780,1008,-221,1881,-686,54,32,-67,-0.10791015625,0.91845703125,-0.3349609375,1.6463414634146343,0.9756097560975611,-2.0426829268292686,0.076,0.009,0.984,1.58,-0.9,2.3,0.61,-1.11,1.52,1459,1459,1500,1500,3.55,0,3,1,1
259,84582789,1009,-140,1899,-400,34,-92,23,-0.068359375,0.92724609375,-0.1953125,1.0365853658536586,-2.804878048780488,0.701219512195122,0.095,0.019,0.975,0.81,-1.07,0.68,0.61,-1.12,1.52,1459,1459,1500,1500,4.8,0,3,1,1
260,84583797,1008,-164,2077,-177,-1,-207,84,-0.080078125,1.01416015625,-0.08642578125,-0.030487804878048783,-6.310975609756098,2.5609756097560976,0.094,0.028,0.981,-0.32,-0.84,-1.56,0.61,-1.12,1.52,1459,1459,1500,1500,4.92,0,3,1,1
261,84584806,1009,130,2181,218,-59,-267,99,0.0634765625,1.06494140625,0.1064453125,-1.7987804878048783,-8.140243902439025,3.0182926829268295,0.062,0.014,0.994,-1.23,-0.08,-3.67,0.61,-1.12,1.51,1459,1459,1500,1500,2.84,0,3,1,1
262,84585814,1008,273,2076,573,-70,-190,63,0.13330078125,1.013671875,0.27978515625,-2.1341463414634148,-5.7926829268292686,1.9207317073170733,0.008,-0.009,0.997,-1.46,0.52,-4.29,0.61,-1.12,1.51,1459,1459,1500,1500,0.66,0,3,1,1
263,84586822,1008,219,2044,663,-17,14,-27,0.10693359375,0.998046875,0.32373046875,-0.5182926829268293,0.426829268292683,-0.8231707317073171,-0.044,-0.024,0.997,-0.7,0.38,-2.63,0.61,-1.12,1.51,1459,1459,1500,1500,3.76,0,3,1,1
264,84587831,1009,379,2092,600,3,211,-92,0.18505859375,1.021484375,0.29296875,0.09146341463414635,6.432926829268293,-2.804878048780488,-0.083,-0.05,1.001,0.45,0.09,0.48,0.61,-1.11,1.51,1459,1459,1500,1500,6.32,0,3,1,1
265,84588839,1008,359,2012,296,-30,308,-63,0.17529296875,0.982421875,0.14453125,-0.9146341463414634,9.390243902439025,-1.9207317073170733,-0.093,-0.069,0.998,0.94,0.23,3.55,0.61,-1.11,1.51,1459,1459,1500,1500,7.29,0,3,1,1
266,84589847,1008,-213,1916,-589,-23,281,-12,-0.10400390625,0.935546875,-0.28759765625,-0.701219512195122,8.567073170731708,-0.3658536585365854,-0.033,-0.042,0.988,0.74,0.26,5.31,0.61,-1.11,1.52,1459,1459,1500,1500,3.54,0,3,1,1
267,84590856,1009,-570,1915,-1254,47,140,-8,-0.2783203125,0.93505859375,-0.6123046875,1.4329268292682928,4.2682926829268295,-0.24390243902439027,0.069,0.008,0.979,0.56,-0.43,5.05,0.61,-1.11,1.52,1459,1459,1500,1500,3.13,0,3,1,1
268,84591863,1007,-267,2007,-849,62,-21,11,-0.13037109375,0.97998046875,-0.41455078125,1.8902439024390245,-0.6402439024390244,0.3353658536585366,0.124,0.027,0.979,0.25,-1.05,3.23,0.61,-1.12,1.52,1459,1459,1500,1500,6.49,0,3,1,1
269,84592871,1008,-44,2048,-245,6,-141,60,-0.021484375,1.0,-0.11962890625,0.1829268292682927,-4.298780487804878,1.829268292682927,0.123,0.026,0.983,-0.44,-0.89,0.8,0.61,-1.12,1.52,1459,1459,1500,1500,6.4,0,3,1,1
270,84593880,1009,-25,2112,16,-29,-237,63,-0.01220703125,1.03125,0.0078125,-0.8841463414634148,-7.225609756097562,1.9207317073170733,0.102,0.024,0.99,-0.94,-0.43,-1.79,0.61,-1.12,1.52,1459,1459,1500,1500,5.19,0,3,1,1
271,84594888,1008,266,2169,483,-53,-264,29,0.1298828125,1.05908203125,0.23583984375,-1.6158536585365855,-8.048780487804878,0.8841463414634148,0.048,0.0,1.001,-0.93,0.12,-3.8,0.61,-1.12,1.52,1459,1459,1500,1500,1.77,0,3,1,1
272,84595896,1008,372,2043,920,-51,-132,-15,0.181640625,0.99755859375,0.44921875,-1.5548780487804879,-4.024390243902439,-0.4573170731707317,-0.03,-0.028,1.0,-0.47,0.46,-3.78,0.61,-1.12,1.52,1459,1459,1500,1500,3.03,0,3,1,1
273,84596905,1009,151,1989,736,0,113,-80,0.07373046875,0.97119140625,0.359375,0.0,3.4451219512195124,-2.439024390243903,-0.082,-0.035,0.996,0.49,0.17,-1.28,0.61,-1.12,1.51,1459,1459,1500,1500,6.02,0,3,1,1
274,84597913,1008,135,2011,356,15,296,-93,0.06591796875,0.98193359375,0.173828125,0.4573170731707317,9.02439024390244,-2.8353658536585367,-0.096,-0.04,0.993,1.26,-0.16,2.25,0.61,-1.11,1.52,1459,1459,1500,1500,6.9,0,3,1,1
275,84598921,1008,-37,1991,-31,-27,301,-16,-0.01806640625,0.97216796875,-0.01513671875,-0.8231707317073171,9.176829268292684,-0.48780487804878053,-0.079,-0.031,0.99,1.0,0.03,4.65,0.61,-1.11,1.52,1459,1459,1500,1500,5.81,0,3,1,1
276,84599930,1009,-375,1999,-825,-30,148,51,-0.18310546875,0.97607421875,-0.40283203125,-0.9146341463414634,4.51219512195122,1.5548780487804879,-0.002,0.002,0.988,0.13,0.19,4.69,0.61,-1.11,1.53,1459,1459,1500,1500,1.48,0,3,1,1
277,84600938,1008,-200,2036,-1324,17,-59,72,-0.09765625,0.994140625,-0.646484375,0.5182926829268293,-1.7987804878048783,2.1951219512195124,0.1,0.017,0.989,-0.64,-0.17,2.61,0.61,-1.11,1.53,1459,1459,1500,1500,4.95,0,3,1,1
278,84601946,1008,140,2038,-879,30,-206,79,0.068359375,0.9951171875,-0.42919921875,0.9146341463414634,-6.2804878048780495,2.408536585365854,0.152,0.004,0.99,-1.24,-0.55,-0.27,0.61,-1.12,1.53,1459,1459,1500,1500,7.68,0,3,1,1
279,84602955,1009,159,2028,-278,6,-285,52,0.07763671875,0.990234375,-0.1357421875,0.1829268292682927,-8.689024390243903,1.5853658536585367,0.149,-0.008,0.99,-1.36,-0.56,-3.0,0.61,-1.12,1.52,1459,1459,1500,1500,7.48,0,3,1,1
280,84603963,1008,146,2136,358,-25,-303,-12,0.0712890625,1.04296875,0.1748046875,-0.7621951219512195,-9.237804878048781,-0.3658536585365854,0.098,-0.018,0.998,-0.79,-0.25,-5.0,0.61,-1.12,1.52,1459,1459,1500,1500,4.52,0,3,1,1
281,84604972,1009,152,2118,1155,-65,-212,-54,0.07421875,1.0341796875,0.56396484375,-1.981707317073171,-6.463414634146342,-1.6463414634146343,-0.006,-0.027,1.004,0.01,0.36,-5.4,0.61,-1.12,1.51,1459,1459,1500,1500,1.79,0,3,1,1
282,84605979,1007,-34,1929,1073,-45,-19,-75,-0.0166015625,0.94189453125,0.52392578125,-1.3719512195121952,-0.5792682926829269,-2.2865853658536586,-0.088,-0.02,0.994,0.76,0.56,-3.7,0.61,-1.12,1.51,1459,1459,1500,1500,6.25,0,3,1,1
283,84606986,1007,-192,1890,347,18,186,-96,-0.09375,0.9228515625,0.16943359375,0.5487804878048781,5.670731707317073,-2.9268292682926833,-0.101,-0.002,0.982,1.48,0.06,-0.48,0.61,-1.12,1.51,1459,1459,1500,1500,7.04,0,3,1,1
284,84607995,1009,-166,1933,-95,9,309,-60,-0.0810546875,0.94384765625,-0.04638671875,0.27439024390243905,9.420731707317074,-1.829268292682927,-0.078,0.01,0.976,1.59,-0.18,2.91,0.61,-1.11,1.51,1459,1459,1500,1500,5.82,0,3,1,1
285,84609003,1008,-170,1983,-552,-42,265,32,-0.0830078125,0.96826171875,-0.26953125,-1.2804878048780488,8.079268292682928,0.9756097560975611,-0.022,0.022,0.975,0.72,0.17,4.73,0.61,-1.11,1.52,1459,1459,1500,1500,3.12,0,3,1,1
286,84610011,1008,-69,2095,-1051,-51,77,98,-0.03369140625,1.02294921875,-0.51318359375,-1.5548780487804879,2.347560975609756,2.987804878048781,0.062,0.024,0.982,-0.52,0.5,4.02,0.61,-1.11,1.52,1459,1459,1500,1500,3.2,0,3,1,1
287,84611020,1009,339,2112,-1122,-26,-129,122,0.16552734375,1.03125,-0.5478515625,-0.7926829268292683,-3.932926829268293,3.7195121951219514,0.139,-0.006,0.99,-1.59,0.46,1.44,0.61,-1.12,1.52,1459,1459,1500,1500,6.88,0,3,1,1
288,84612027,1007,583,2050,-593,-13,-277,101,0.28466796875,1.0009765625,-0.28955078125,-0.39634146341463417,-8.445121951219512,3.079268292682927,0.162,-0.05,0.992,-2.1,0.31,-1.77,0.61,-1.12,1.52,1459,1459,1500,1500,8.51,0,3,1,1
289,84613035,1008,324,2116,234,3,-292,18,0.158203125,1.033203125,0.1142578125,0.09146341463414635,-8.902439024390244,0.5487804878048781,0.119,-0.067,0.998,-1.58,0.04,-4.07,0.61,-1.12,1.52,1459,1459,1500,1500,6.51,0,3,1,1
290,84614042,1007,-79,2185,943,1,-177,-80,-0.03857421875,1.06689453125,0.46044921875,0.030487804878048783,-5.396341463414634,-2.439024390243903,0.027,-0.05,1.009,-0.24,-0.11,-4.42,0.61,-1.12,1.51,1459,1459,1500,1500,2.28,0,3,1,1
291,84615051,1009,-297,2041,1222,-36,-34,-125,-0.14501953125,0.99658203125,0.5966796875,-1.0975609756097562,-1.0365853658536586,-3.810975609756098,-0.071,-0.019,1.007,1.1,0.16,-3.2,0.61,-1.12,1.51,1459,1459,1500,1500,5.23,0,3,1,1
292,84616058,1007,-375,1892,717,-24,110,-107,-0.18310546875,0.923828125,0.35009765625,-0.7317073170731708,3.353658536585366,-3.26219512195122,-0.115,0.012,0.994,1.81,0.21,-0.92,0.61,-1.12,1.51,1459,1459,1500,1500,7.89,0,3,1,1
293,84617067,1009,-427,1868,-138,20,213,-59,-0.20849609375,0.912109375,-0.0673828125,0.6097560975609757,6.4939024390243905,-1.7987804878048783,-0.086,0.043,0.981,1.8,-0.18,1.64,0.61,-1.11,1.51,1459,1459,1500,1500,6.94,0,3,1,1
294,84618075,1008,-322,1867,-617,6,211,6,-0.1572265625,0.91162109375,-0.30126953125,0.1829268292682927,6.432926829268293,0.1829268292682927,-0.025,0.061,0.97,1.13,-0.31,3.33,0.6,-1.11,1.51,1459,1459,1500,1500,4.99,0,3,1,1
295,84619083,1008,32,2029,-788,-47,124,82,0.015625,0.99072265625,-0.384765625,-1.4329268292682928,3.780487804878049,2.5,0.039,0.049,0.973,-0.08,0.13,3.56,0.6,-1.11,1.52,1459,1459,1500,1500,3.72,0,3,1,1
296,84620091,1008,431,2228,-921,-60,-10,141,0.21044921875,1.087890625,-0.44970703125,-1.829268292682927,-0.30487804878048785,4.298780487804878,0.104,0.008,0.991,-1.5,0.56,2.36,0.6,-1.11,1.52,1459,1459,1500,1500,5.03,0,3,1,1
297,84621100,1009,699,2158,-733,-37,-154,149,0.34130859375,1.0537109375,-0.35791015625,-1.128048780487805,-4.695121951219512,4.5426829268292686,0.144,-0.047,1.001,-2.52,0.62,0.08,0.61,-1.12,1.52,1459,1459,1500,1500,7.41,0,3,1,1
298,84622108,1008,723,2040,-17,-17,-237,91,0.35302734375,0.99609375,-0.00830078125,-0.5182926829268293,-7.225609756097562,2.774390243902439,0.123,-0.095,1.0,-2.61,0.45,-2.27,0.61,-1.12,1.52,1459,1459,1500,1500,7.61,0,3,1,1
299,84623116,1008,391,2101,628,9,-180,-19,0.19091796875,1.02587890625,0.306640625,0.27439024390243905,-5.487804878048781,-0.5792682926829269,0.055,-0.11,1.004,-1.55,0.08,-3.26,0.62,-1.12,1.51,1459,1459,1500,1500,6.01,0,3,1,1
300,84624124,1008,-213,2201,927,12,-23,-129,-0.10400390625,1.07470703125,0.45263671875,0.3658536585365854,-0.701219512195122,-3.932926829268293,-0.025,-0.076,1.015,0.27,-0.2,-2.31,0.62,-1.12,1.51,1459,1459,1500,1500,4.5,0,3,1,1
301,84625132,1008,-714,2191,846,-16,108,-176,-0.3486328125,1.06982421875,0.4130859375,-0.48780487804878053,3.2926829268292686,-5.365853658536586,-0.086,-0.009,1.024,1.97,-0.1,-0.35,0.62,-1.12,1.51,1459,1459,1500,1500,5.98,0,3,1,1
302,84626140,1008,-825,2020,104,-9,184,-133,-0.40283203125,0.986328125,0.05078125,-0.27439024390243905,5.609756097560976,-4.0548780487804885,-0.081,0.056,1.018,2.66,-0.1,1.72,0.61,-1.11,1.51,1459,1459,1500,1500,6.81,0,3,1,1
303,84627148,1008,-617,1702,-593,12,185,-39,-0.30126953125,0.8310546875,-0.28955078125,0.3658536585365854,5.640243902439025,-1.1890243902439026,-0.022,0.094,0.988,2.16,-0.32,3.12,0.61,-1.11,1.52,1459,1459,1500,1500,6.56,0,3,1,1
304,84628156,1008,-128,1648,-682,-3,93,43,-0.0625,0.8046875,-0.3330078125,-0.09146341463414635,2.8353658536585367,1.3109756097560976,0.033,0.089,0.959,0.99,-0.31,3.11,0.6,-1.11,1.52,1459,1459,1500,1500,6.02,0,3,1,1
305,84629163,1007,469,2077,-626,-39,-10,108,0.22900390625,1.01416015625,-0.3056640625,-1.1890243902439026,-0.30487804878048785,3.2926829268292686,0.077,0.039,0.968,-0.44,0.05,2.05,0.6,-1.12,1.52,1459,1459,1500,1500,4.51,0,3,1,1
306,84630172,1009,719,2297,-553,-53,-110,154,0.35107421875,1.12158203125,-0.27001953125,-1.6158536585365855,-3.353658536585366,4.695121951219512,0.107,-0.022,0.992,-1.87,0.44,0.33,0.6,-1.12,1.52,1459,1459,1500,1500,5.12,0,3,1,1
307,84631180,1008,591,2144,-199,-34,-174,139,0.28857421875,1.046875,-0.09716796875,-1.0365853658536586,-5.3048780487804885,4.237804878048781,0.105,-0.064,1.001,-2.67,0.51,-1.46,0.61,-1.12,1.52,1459,1459,1500,1500,5.8,0,3,1,1
308,84632188,1008,498,2082,335,-12,-148,60,0.2431640625,1.0166015625,0.16357421875,-0.3658536585365854,-4.51219512195122,1.829268292682927,0.063,-0.093,1.003,-2.39,0.33,-2.39,0.61,-1.12,1.52,1459,1459,1500,1500,5.29,0,3,1,1
309,84633197,1009,354,2061,636,10,-65,-47,0.1728515625,1.00634765625,0.310546875,0.30487804878048785,-1.981707317073171,-1.4329268292682928,0.003,-0.105,1.003,-1.12,-0.01,-2.17,0.62,-1.12,1.52,1459,1459,1500,1500,5.47,0,3,1,1
310,84634205,1008,-178,2132,673,8,51,-160,-0.0869140625,1.041015625,0.32861328125,0.24390243902439027,1.5548780487804879,-4.878048780487806,-0.048,-0.075,1.009,0.87,-0.22,-0.83,0.62,-1.12,1.52,1459,1459,1500,1500,5.32,0,3,1,1
311,84635214,1009,-723,2247,371,-18,139,-197,-0.35302734375,1.09716796875,0.18115234375,-0.5487804878048781,4.237804878048781,-6.00609756097561,-0.069,-0.007,1.023,2.58,-0.09,0.94,0.61,-1.12,1.52,1459,1459,1500,1500,5.03,0,3,1,1
312,84636222,1008,-915,1999,-333,-4,137,-115,-0.44677734375,0.97607421875,-0.16259765625,-0.12195121951219513,4.176829268292683,-3.50609756097561,-0.032,0.064,1.016,2.88,-0.15,2.11,0.61,-1.11,1.52,1459,1459,1500,1500,5.2,0,3,1,1
313,84637230,1008,-754,1605,-705,27,64,1,-0.3681640625,0.78369140625,-0.34423828125,0.8231707317073171,1.9512195121951221,0.030487804878048783,0.026,0.112,0.979,1.9,-0.51,2.14,0.6,-1.12,1.52,1459,1459,1500,1500,7.2,0,3,1,1
314,84638239,1009,-47,1733,-498,11,-50,79,-0.02294921875,0.84619140625,-0.2431640625,0.3353658536585366,-1.524390243902439,2.408536585365854,0.061,0.098,0.958,0.45,-0.58,1.0,0.6,-1.12,1.52,1459,1459,1500,1500,6.95,0,3,1,1
315,84639247,1008,782,2157,-204,-43,-147,133,0.3818359375,1.05322265625,-0.099609375,-1.3109756097560976,-4.481707317073171,4.0548780487804885,0.067,0.022,0.973,-1.06,-0.08,-0.74,0.6,-1.12,1.52,1459,1459,1500,1500,3.42,0,3,1,1
316,84640255,1008,891,2225,-127,-64,-182,152,0.43505859375,1.08642578125,-0.06201171875,-1.9512195121951221,-5.548780487804878,4.634146341463415,0.066,-0.05,0.991,-2.26,0.46,-2.26,0.6,-1.12,1.52,1459,1459,1500,1500,3.54,0,3,1,1
317,84641264,1009,533,2166,-61,-31,-144,106,0.26025390625,1.0576171875,-0.02978515625,-0.9451219512195123,-4.390243902439025,3.231707317073171,0.06,-0.083,1.001,-2.59,0.49,-2.88,0.61,-1.12,1.52,1459,1459,1500,1500,4.76,0,3,1,1
318,84642272,1008,338,2175,356,-8,-57,26,0.1650390625,1.06201171875,0.173828125,-0.24390243902439027,-1.7378048780487807,0.7926829268292683,0.023,-0.096,1.011,-1.99,0.27,-2.41,0.61,-1.12,1.51,1459,1459,1500,1500,4.83,0,3,1,1
319,84643280,1008,77,2073,651,-4,30,-73,0.03759765625,1.01220703125,0.31787109375,-0.12195121951219513,0.9146341463414634,-2.225609756097561,-0.03,-0.087,1.011,-0.59,0.09,-1.21,0.62,-1.12,1.51,1459,1459,1500,1500,5.16,0,3,1,1
320,84644289,1009,-317,2047,425,-2,101,-183,-0.15478515625,0.99951171875,0.20751953125,-0.06097560975609757,3.079268292682927,-5.579268292682928,-0.058,-0.048,1.009,1.46,-0.04,0.3,0.62,-1.12,1.51,1459,1459,1500,1500,4.94,0,3,1,1
321,84645297,1008,-554,2134,-82,0,145,-190,-0.2705078125,1.0419921875,-0.0400390625,0.0,4.420731707317073,-5.7926829268292686,-0.043,0.001,1.014,2.9,-0.16,1.77,0.61,-1.11,1.51,1459,1459,1500,1500,3.62,0,3,1,1
322,84646306,1009,-797,1910,-605,34,115,-73,-0.38916015625,0.9326171875,-0.29541015625,1.0365853658536586,3.50609756097561,-2.225609756097561,0.01,0.063,1.001,2.67,-0.58,2.43,0.61,-1.11,1.52,1459,1459,1500,1500,4.26,0,3,1,1
323,84647314,1008,-732,1627,-665,47,6,39,-0.357421875,0.79443359375,-0.32470703125,1.4329268292682928,0.1829268292682927,1.1890243902439026,0.06,0.109,0.968,1.37,-1.0,1.77,0.6,-1.12,1.52,1459,1459,1500,1500,7.49,0,3,1,1
324,84648322,1008,131,1902,-246,-18,-115,109,0.06396484375,0.9287109375,-0.1201171875,-0.5487804878048781,-3.50609756097561,3.3231707317073176,0.069,0.082,0.962,-0.2,-0.61,0.09,0.6,-1.12,1.52,1459,1459,1500,1500,6.27,0,3,1,1
325,84649331,1009,846,2210,60,-76,-193,152,0.4130859375,1.0791015625,0.029296875,-2.3170731707317076,-5.884146341463415,4.634146341463415,0.054,0.003,0.98,-1.69,0.23,-1.81,0.6,-1.12,1.52,1459,1459,1500,1500,2.19,0,3,1,1
326,84650339,1008,668,2135,131,-54,-167,116,0.326171875,1.04248046875,0.06396484375,-1.6463414634146343,-5.091463414634147,3.536585365853659,0.035,-0.048,0.99,-2.31,0.57,-2.82,0.6,-1.12,1.51,1459,1459,1500,1500,2.38,0,3,1,1
327,84651347,1008,456,2129,255,-14,-47,43,0.22265625,1.03955078125,0.12451171875,-0.426829268292683,-1.4329268292682928,1.3109756097560976,0.01,-0.076,0.998,-1.98,0.39,-2.27,0.61,-1.12,1.51,1459,1459,1500,1500,3.79,0,3,1,1
328,84652356,1009,314,2179,425,-17,81,-6,0.1533203125,1.06396484375,0.20751953125,-0.5182926829268293,2.4695121951219514,-0.1829268292682927,-0.024,-0.088,1.008,-1.26,0.3,-0.59,0.61,-1.12,1.51,1459,1459,1500,1500,5.06,0,3,1,1
329,84653364,1008,-184,2147,319,-16,169,-91,-0.08984375,1.04833984375,0.15576171875,-0.48780487804878053,5.152439024390245,-2.774390243902439,-0.045,-0.06,1.015,0.07,0.23,1.41,0.61,-1.12,1.51,1459,1459,1500,1500,4.6,0,3,1,1
330,84654373,1009,-338,2127,-57,2,177,-183,-0.1650390625,1.03857421875,-0.02783203125,0.06097560975609757,5.396341463414634,-5.579268292682928,-0.033,-0.024,1.018,1.91,0.0,2.83,0.61,-1.11,1.52,1459,1459,1500,1500,3.1,0,3,1,1
331,84655381,1008,-258,1989,-310,18,133,-150,-0.1259765625,0.97119140625,-0.1513671875,0.5487804878048781,4.0548780487804885,-4.573170731707317,-0.004,0.0,1.011,2.79,-0.31,3.32,0.61,-1.11,1.52,1459,1459,1500,1500,1.48,0,3,1,1
332,84656389,1008,-612,1697,-551,52,53,-32,-0.298828125,0.82861328125,-0.26904296875,1.5853658536585367,1.6158536585365855,-0.9756097560975611,0.039,0.046,0.982,2.17,-0.87,2.84,0.6,-1.12,1.52,1459,1459,1500,1500,3.54,0,3,1,1
333,84657397,1008,-541,1700,-681,47,-92,52,-0.26416015625,0.830078125,-0.33251953125,1.4329268292682928,-2.804878048780488,1.5853658536585367,0.085,0.081,0.958,0.91,-1.19,1.04,0.6,-1.12,1.52,1459,1459,1500,1500,6.74,0,3,1,1
334,84658405,1008,275,2095,-183,-47,-213,118,0.13427734375,1.02294921875,-0.08935546875,-1.4329268292682928,-6.4939024390243905,3.5975609756097566,0.086,0.047,0.968,-0.6,-0.44,-1.39,0.6,-1.12,1.52,1459,1459,1500,1500,5.21,0,3,1,1
335,84659413,1008,592,2234,305,-93,-218,149,0.2890625,1.0908203125,0.14892578125,-2.8353658536585367,-6.646341463414635,4.5426829268292686,0.048,-0.006,0.987,-1.92,0.52,-3.06,0.6,-1.12,1.52,1459,1459,1500,1500,1.72,0,3,1,1
336,84660422,1009,391,2085,390,-40,-123,73,0.19091796875,1.01806640625,0.1904296875,-1.2195121951219514,-3.7500000000000004,2.225609756097561,0.01,-0.035,0.992,-2.03,0.62,-3.2,0.6,-1.12,1.51,1459,1459,1500,1500,1.52,0,3,1,1
337,84661430,1008,499,2088,580,-23,20,-13,0.24365234375,1.01953125,0.283203125,-0.701219512195122,0.6097560975609757,-0.39634146341463417,-0.035,-0.068,0.996,-1.22,0.51,-1.84,0.61,-1.12,1.51,1459,1459,1500,1500,4.59,0,3,1,1
338,84662439,1009,342,2114,472,-45,149,-34,0.1669921875,1.0322265625,0.23046875,-1.3719512195121952,4.5426829268292686,-1.0365853658536586,-0.066,-0.084,1.002,-0.47,0.67,0.38,0.61,-1.11,1.51,1459,1459,1500,1500,6.45,0,3,1,1
339,84663447,1008,-301,2038,-261,-12,206,-82,-0.14697265625,0.9951171875,-0.12744140625,-0.3658536585365854,6.2804878048780495,-2.5,-0.035,-0.047,1.001,0.51,0.43,2.44,0.61,-1.11,1.52,1459,1459,1500,1500,3.8,0,3,1,1
340,84664455,1008,-390,1979,-726,45,159,-139,-0.1904296875,0.96630859375,-0.3544921875,1.3719512195121952,4.847560975609756,-4.237804878048781,0.026,-0.009,0.995,1.75,-0.3,3.33,0.61,-1.11,1.52,1459,1459,1500,1500,0.38,0,3,1,1
341,84665464,1009,-110,1929,-466,48,50,-91,-0.0537109375,0.94189453125,-0.2275390625,1.4634146341463417,1.524390243902439,-2.774390243902439,0.058,0.0,0.987,2.08,-0.82,2.81,0.61,-1.12,1.52,1459,1459,1500,1500,2.33,0,3,1,1
342,84666472,1008,-293,1858,-308,20,-56,20,-0.14306640625,0.9072265625,-0.150390625,0.6097560975609757,-1.707317073170732,0.6097560975609757,0.072,0.022,0.974,1.17,-0.88,1.38,0.6,-1.12,1.52,1459,1459,1500,1500,3.7,0,3,1,1
343,84667480,1008,-331,1995,-421,-4,-179,84,-0.16162109375,0.97412109375,-0.20556640625,-0.12195121951219513,-5.457317073170732,2.5609756097560976,0.093,0.044,0.974,-0.08,-0.67,-0.81,0.6,-1.12,1.52,1459,1459,1500,1500,5.44,0,3,1,1
344,84668489,1009,161,2220,-71,-45,-275,107,0.07861328125,1.083984375,-0.03466796875,-1.3719512195121952,-8.384146341463415,3.26219512195122,0.084,0.025,0.991,-1.15,-0.12,-3.25,0.6,-1.12,1.52,1459,1459,1500,1500,4.27,0,3,1,1
345,84669497,1008,388,2130,533,-66,-231,92,0.189453125,1.0400390625,0.26025390625,-2.0121951219512195,-7.0426829268292686,2.804878048780488,0.029,-0.008,0.999,-1.71,0.45,-4.43,0.6,-1.12,1.51,1459,1459,1500,1500,0.58,0,3,1,1
346,84670505,1008,272,2037,755,-43,-71,9,0.1328125,0.99462890625,0.36865234375,-1.3109756097560976,-2.164634146341464,0.27439024390243905,-0.033,-0.028,0.998,-1.23,0.61,-3.59,0.61,-1.12,1.51,1459,1459,1500,1500,3.21,0,3,1,1
347,84671514,1009,436,2085,619,-28,97,-70,0.212890625,1.01806640625,0.30224609375,-0.853658536585366,2.957317073170732,-2.1341463414634148,-0.076,-0.057,1.001,-0.11,0.56,-1.31,0.61,-1.12,1.51,1459,1459,1500,1500,6.08,0,3,1,1
348,84672522,1008,483,2027,251,-38,208,-55,0.23583984375,0.98974609375,0.12255859375,-1.1585365853658538,6.341463414634147,-1.676829268292683,-0.083,-0.085,0.999,0.47,0.62,1.33,0.61,-1.11,1.51,1459,1459,1500,1500,7.28,0,3,1,1
349,84673530,1008,-197,1955,-461,-19,218,-30,-0.09619140625,0.95458984375,-0.22509765625,-0.5792682926829269,6.646341463414635,-0.9146341463414634,-0.034,-0.057,0.992,0.61,0.48,3.19,0.61,-1.11,1.51,1459,1459,1500,1500,4.1,0,3,1,1
350,84674539,1009,-640,1913,-1009,44,113,-58,-0.3125,0.93408203125,-0.49267578125,1.3414634146341464,3.4451219512195124,-1.7682926829268295,0.049,0.001,0.983,0.99,-0.26,3.36,0.61,-1.11,1.52,1459,1459,1500,1500,1.88,0,3,1,1
351,84675547,1008,-248,1953,-757,57,-39,-31,-0.12109375,0.95361328125,-0.36962890625,1.7378048780487807,-1.1890243902439026,-0.9451219512195123,0.099,0.02,0.978,0.97,-0.88,1.93,0.61,-1.12,1.52,1459,1459,1500,1500,5.05,0,3,1,1
352,84676555,1008,-61,2010,-257,6,-149,59,-0.02978515625,0.9814453125,-0.12548828125,0.1829268292682927,-4.5426829268292686,1.7987804878048783,0.103,0.021,0.979,0.03,-0.78,-0.14,0.61,-1.12,1.52,1459,1459,1500,1500,5.29,0,3,1,1
353,84677564,1009,-122,2067,-82,-29,-225,94,-0.0595703125,1.00927734375,-0.0400390625,-0.8841463414634148,-6.859756097560976,2.8658536585365857,0.093,0.027,0.983,-0.94,-0.35,-2.3,0.61,-1.12,1.52,1459,1459,1500,1500,4.86,0,3,1,1
354,84678572,1008,202,2169,244,-48,-266,69,0.0986328125,1.05908203125,0.119140625,-1.4634146341463417,-8.109756097560977,2.103658536585366,0.06,0.007,0.995,-1.33,0.11,-4.16,0.61,-1.12,1.51,1459,1459,1500,1500,2.55,0,3,1,1
355,84679581,1009,351,2134,832,-49,-165,17,0.17138671875,1.0419921875,0.40625,-1.4939024390243905,-5.0304878048780495,0.5182926829268293,-0.013,-0.02,1.003,-1.07,0.44,-4.36,0.61,-1.12,1.51,1459,1459,1500,1500,2.0,0,3,1,1
356,84680589,1008,192,2076,833,-18,66,-59,0.09375,1.013671875,0.40673828125,-0.5487804878048781,2.0121951219512195,-1.7987804878048783,-0.076,-0.032,1.004,-0.11,0.34,-2.14,0.61,-1.12,1.51,1459,1459,1500,1500,5.59,0,3,1,1
357,84681597,1008,253,2053,352,-9,246,-91,0.12353515625,1.00244140625,0.171875,-0.27439024390243905,7.500000000000001,-2.774390243902439,-0.091,-0.046,1.004,0.84,0.19,1.16,0.61,-1.11,1.51,1459,1459,1500,1500,6.64,0,3,1,1
358,84682606,1009,148,1952,-82,-29,291,-33,0.072265625,0.953125,-0.0400390625,-0.8841463414634148,8.871951219512196,-1.0060975609756098,-0.07,-0.05,0.996,0.89,0.29,3.83,0.61,-1.11,1.51,1459,1459,1500,1500,5.65,0,3,1,1
359,84683614,1008,-310,1880,-802,-16,208,25,-0.1513671875,0.91796875,-0.3916015625,-0.48780487804878053,6.341463414634147,0.7621951219512195,0.002,-0.018,0.983,0.33,0.22,4.75,0.61,-1.11,1.52,1459,1459,1500,1500,1.06,0,3,1,1
360,84684621,1007,-417,1995,-1145,26,50,33,-0.20361328125,0.97412109375,-0.55908203125,0.7926829268292683,1.524390243902439,1.0060975609756098,0.09,0.016,0.982,-0.12,-0.24,3.76,0.61,-1.11,1.52,1459,1459,1500,1500,4.46,0,3,1,1
361,84685629,1008,-141,2112,-621,18,-99,50,-0.06884765625,1.03125,-0.30322265625,0.5487804878048781,-3.0182926829268295,1.524390243902439,0.124,0.024,0.99,-0.59,-0.48,1.58,0.61,-1.12,1.52,1459,1459,1500,1500,6.39,0,3,1,1
362,84686637,1008,-13,2039,-246,-12,-209,65,-0.00634765625,0.99560546875,-0.1201171875,-0.3658536585365854,-6.371951219512195,1.981707317073171,0.123,0.021,0.99,-1.06,-0.32,-0.99,0.61,-1.12,1.52,1459,1459,1500,1500,6.29,0,3,1,1
363,84687646,1009,120,2073,75,-19,-256,32,0.05859375,1.01220703125,0.03662109375,-0.5792682926829269,-7.8048780487804885,0.9756097560975611,0.098,0.009,0.994,-1.04,-0.15,-3.18,0.61,-1.12,1.52,1459,1459,1500,1500,4.67,0,3,1,1
364,84688654,1008,378,2119,859,-52,-195,-11,0.1845703125,1.03466796875,0.41943359375,-1.5853658536585367,-5.945121951219512,-0.3353658536585366,0.016,-0.021,1.0,-0.59,0.29,-4.02,0.61,-1.12,1.51,1459,1459,1500,1500,0.65,0,3,1,1
365,84689662,1008,273,2014,1125,-62,-8,-52,0.13330078125,0.9833984375,0.54931640625,-1.8902439024390245,-0.24390243902439027,-1.5853658536585367,-0.073,-0.039,0.997,0.13,0.69,-2.66,0.61,-1.12,1.51,1459,1459,1500,1500,5.57,0,3,1,1
366,84690671,1009,-33,2031,525,-10,217,-99,-0.01611328125,0.99169921875,0.25634765625,-0.30487804878048785,6.615853658536586,-3.0182926829268295,-0.102,-0.03,0.996,1.08,0.43,0.52,0.61,-1.12,1.51,1459,1459,1500,1500,7.08,0,3,1,1
367,84691679,1008,-119,2040,-44,13,326,-76,-0.05810546875,0.99609375,-0.021484375,0.39634146341463417,9.939024390243903,-2.3170731707317076,-0.082,-0.016,0.996,1.49,0.02,3.76,0.61,-1.11,1.52,1459,1459,1500,1500,5.87,0,3,1,1
368,84692688,1009,-245,1946,-451,-22,259,18,-0.11962890625,0.9501953125,-0.22021484375,-0.6707317073170732,7.896341463414635,0.5487804878048781,-0.034,0.005,0.989,0.8,0.1,5.23,0.61,-1.11,1.52,1459,1459,1500,1500,3.25,0,3,1,1
369,84693696,1008,-242,1949,-1009,-33,73,85,-0.1181640625,0.95166015625,-0.49267578125,-1.0060975609756098,2.225609756097561,2.5914634146341466,0.048,0.023,0.983,-0.33,0.27,4.31,0.61,-1.11,1.52,1459,1459,1500,1500,2.61,0,3,1,1
370,84694704,1008,151,2038,-1167,-10,-117,102,0.07373046875,0.9951171875,-0.56982421875,-0.30487804878048785,-3.5670731707317076,3.1097560975609757,0.131,0.007,0.985,-1.27,0.15,1.76,0.61,-1.11,1.53,1459,1459,1500,1500,6.57,0,3,1,1
371,84695713,1009,424,2066,-534,-17,-225,90,0.20703125,1.0087890625,-0.2607421875,-0.5182926829268293,-6.859756097560976,2.7439024390243905,0.152,-0.026,0.989,-1.77,0.14,-1.03,0.61,-1.12,1.53,1459,1459,1500,1500,7.67,0,3,1,1
372,84696721,1008,312,2056,112,-20,-247,42,0.15234375,1.00390625,0.0546875,-0.6097560975609757,-7.5304878048780495,1.2804878048780488,0.119,-0.046,0.991,-1.61,0.16,-3.11,0.61,-1.12,1.52,1459,1459,1500,1500,6.09,0,3,1,1
373,84697728,1007,48,2128,599,-9,-201,-37,0.0234375,1.0390625,0.29248046875,-0.27439024390243905,-6.128048780487806,-1.128048780487805,0.053,-0.042,0.998,-0.7,0.07,-4.03,0.61,-1.12,1.52,1459,1459,1500,1500,2.68,0,3,1,1
374,84698736,1008,-150,2091,1092,-28,-99,-91,-0.0732421875,1.02099609375,0.533203125,-0.853658536585366,-3.0182926829268295,-2.774390243902439,-0.039,-0.024,1.002,0.45,0.2,-3.61,0.61,-1.12,1.51,1459,1459,1500,1500,3.45,0,3,1,1
375,84699745,1009,-213,1941,837,-28,51,-104,-0.10400390625,0.94775390625,0.40869140625,-0.853658536585366,1.5548780487804879,-3.1707317073170733,-0.097,-0.003,0.993,1.35,0.28,-1.79,0.61,-1.12,1.51,1459,1459,1500,1500,6.75,0,3,1,1
376,84700753,1008,-296,1918,72,-2,203,-88,-0.14453125,0.9365234375,0.03515625,-0.06097560975609757,6.189024390243903,-2.682926829268293,-0.087,0.019,0.984,1.79,0.07,0.96,0.61,-1.11,1.51,1459,1459,1500,1500,6.46,0,3,1,1
377,84701760,1007,-358,1947,-429,-12,248,-26,-0.1748046875,0.95068359375,-0.20947265625,-0.3658536585365854,7.560975609756098,-0.7926829268292683,-0.04,0.044,0.979,1.45,0.04,3.25,0.61,-1.11,1.52,1459,1459,1500,1500,4.74,0,3,1,1
378,84702768,1008,-160,1999,-759,-42,148,62,-0.078125,0.97607421875,-0.37060546875,-1.2804878048780488,4.51219512195122,1.8902439024390245,0.024,0.049,0.978,0.32,0.32,3.76,0.6,-1.11,1.52,1459,1459,1500,1500,3.52,0,3,1,1
379,84703777,1009,242,2070,-932,-47,-27,124,0.1181640625,1.0107421875,-0.455078125,-1.4329268292682928,-0.8231707317073171,3.780487804878049,0.092,0.022,0.983,-1.05,0.56,2.31,0.6,-1.11,1.52,1459,1459,1500,1500,4.69,0,3,1,1
380,84704785,1008,632,2066,-739,-32,-195,135,0.30859375,1.0087890625,-0.36083984375,-0.9756097560975611,-5.945121951219512,4.115853658536586,0.135,-0.029,0.987,-2.08,0.56,-0.35,0.61,-1.12,1.52,1459,1459,1500,1500,6.77,0,3,1,1
381,84705793,1008,715,2076,-176,-23,-280,90,0.34912109375,1.013671875,-0.0859375,-0.701219512195122,-8.536585365853659,2.7439024390243905,0.127,-0.08,0.991,-2.31,0.48,-3.0,0.61,-1.12,1.52,1459,1459,1500,1500,7.36,0,3,1,1
382,84706802,1009,324,2179,407,8,-226,-5,0.158203125,1.06396484375,0.19873046875,0.24390243902439027,-6.890243902439025,-0.15243902439024393,0.075,-0.092,1.003,-1.49,0.1,-4.21,0.62,-1.12,1.52,1459,1459,1500,1500,5.63,0,3,1,1
383,84707810,1008,-229,2238,873,16,-98,-106,-0.11181640625,1.0927734375,0.42626953125,0.48780487804878053,-2.987804878048781,-3.231707317073171,-0.003,-0.06,1.017,0.07,-0.22,-3.72,0.62,-1.12,1.51,1459,1459,1500,1500,3.07,0,3,1,1
384,84708817,1007,-515,2089,1014,-31,23,-152,-0.25146484375,1.02001953125,0.4951171875,-0.9451219512195123,0.701219512195122,-4.634146341463415,-0.081,-0.01,1.017,1.59,0.03,-2.15,0.62,-1.12,1.51,1459,1459,1500,1500,5.72,0,3,1,1
385,84709826,1009,-563,1898,325,-28,134,-121,-0.27490234375,0.9267578125,0.15869140625,-0.853658536585366,4.085365853658537,-3.689024390243903,-0.093,0.034,1.003,2.28,0.17,0.02,0.61,-1.11,1.51,1459,1459,1500,1500,6.97,0,3,1,1
386,84710834,1008,-559,1811,-486,17,194,-55,-0.27294921875,0.88427734375,-0.2373046875,0.5182926829268293,5.914634146341464,-1.676829268292683,-0.041,0.072,0.984,2.07,-0.18,2.07,0.61,-1.11,1.51,1459,1459,1500,1500,5.97,0,3,1,1
387,84711842,1008,-321,1834,-644,3,163,23,-0.15673828125,0.8955078125,-0.314453125,0.09146341463414635,4.969512195121951,0.701219512195122,0.015,0.085,0.97,1.14,-0.28,3.13,0.6,-1.11,1.51,1459,1459,1500,1500,5.66,0,3,1,1
388,84712851,1009,205,2063,-645,-53,48,105,0.10009765625,1.00732421875,-0.31494140625,-1.6158536585365855,1.4634146341463417,3.2012195121951224,0.062,0.056,0.976,-0.31,0.21,2.66,0.6,-1.11,1.52,1459,1459,1500,1500,4.66,0,3,1,1
389,84713859,1008,652,2200,-728,-65,-103,155,0.318359375,1.07421875,-0.35546875,-1.981707317073171,-3.1402439024390247,4.725609756097561,0.109,-0.003,0.991,-1.79,0.67,0.8,0.6,-1.11,1.52,1459,1459,1500,1500,5.17,0,3,1,1
390,84714868,1009,807,2098,-435,-30,-192,142,0.39404296875,1.0244140625,-0.21240234375,-0.9146341463414634,-5.853658536585367,4.329268292682928,0.125,-0.065,0.996,-2.65,0.62,-1.33,0.61,-1.12,1.52,1459,1459,1500,1500,6.8,0,3,1,1
391,84715876,1008,722,2075,268,-3,-188,71,0.3525390625,1.01318359375,0.130859375,-0.09146341463414635,-5.731707317073171,2.164634146341464,0.084,-0.11,0.999,-2.49,0.31,-2.71,0.61,-1.12,1.51,1459,1459,1500,1500,6.8,0,3,1,1
392,84716884,1008,338,2152,752,17,-92,-32,0.1650390625,1.05078125,0.3671875,0.5182926829268293,-2.804878048780488,-0.9756097560975611,0.013,-0.119,1.007,-1.34,-0.09,-2.65,0.62,-1.12,1.51,1459,1459,1500,1500,6.15,0,3,1,1
393,84717893,1009,-307,2191,796,17,57,-137,-0.14990234375,1.06982421875,0.388671875,0.5182926829268293,1.7378048780487807,-4.176829268292683,-0.05,-0.076,1.017,0.49,-0.36,-1.1,0.62,-1.12,1.51,1459,1459,1500,1500,5.41,0,3,1,1
394,84718901,1008,-776,2145,456,-7,156,-186,-0.37890625,1.04736328125,0.22265625,-0.2134146341463415,4.75609756097561,-5.670731707317073,-0.077,-0.004,1.022,2.22,-0.3,0.94,0.62,-1.11,1.51,1459,1459,1500,1500,5.49,0,3,1,1
395,84719909,1008,-809,1944,-192,-1,186,-134,-0.39501953125,0.94921875,-0.09375,-0.030487804878048783,5.670731707317073,-4.085365853658537,-0.05,0.058,1.01,2.83,-0.32,2.61,0.61,-1.11,1.51,1459,1459,1500,1500,5.62,0,3,1,1
396,84720918,1009,-584,1668,-585,24,152,-30,-0.28515625,0.814453125,-0.28564453125,0.7317073170731708,4.634146341463415,-0.9146341463414634,0.002,0.094,0.979,2.18,-0.59,3.37,0.61,-1.11,1.52,1459,1459,1500,1500,6.22,0,3,1,1
397,84721926,1008,-136,1752,-595,12,38,60,-0.06640625,0.85546875,-0.29052734375,0.3658536585365854,1.1585365853658538,1.829268292682927,0.048,0.09,0.959,0.83,-0.64,2.72,0.6,-1.11,1.52,1459,1459,1500,1500,6.23,0,3,1,1
398,84722933,1007,450,2155,-501,-32,-118,128,0.2197265625,1.05224609375,-0.24462890625,-0.9756097560975611,-3.5975609756097566,3.9024390243902443,0.079,0.041,0.974,-0.75,-0.23,0.69,0.6,-1.12,1.52,1459,1459,1500,1500,4.65,0,3,1,1
399,84723940,1007,708,2245,-364,-59,-225,163,0.345703125,1.09619140625,-0.177734375,-1.7987804878048783,-6.859756097560976,4.969512195121951,0.095,-0.02,0.993,-2.17,0.31,-1.74,0.6,-1.12,1.52,1459,1459,1500,1500,4.37,0,3,1,1
400,84724947,1007,602,2129,-121,-36,-198,127,0.2939453125,1.03955078125,-0.05908203125,-1.0975609756097562,-6.036585365853659,3.8719512195121957,0.089,-0.063,1.001,-2.74,0.44,-3.09,0.61,-1.12,1.52,1459,1459,1500,1500,4.99,0,3,1,1
401,84725955,1008,522,2121,377,-2,-97,40,0.2548828125,1.03564453125,0.18408203125,-0.06097560975609757,-2.957317073170732,1.2195121951219514,0.045,-0.093,1.006,-2.24,0.18,-2.96,0.61,-1.12,1.51,1459,1459,1500,1500,4.94,0,3,1,1
402,84726964,1009,302,2095,729,8,11,-68,0.1474609375,1.02294921875,0.35595703125,0.24390243902439027,0.3353658536585366,-2.073170731707317,-0.017,-0.102,1.009,-0.8,-0.09,-1.77,0.62,-1.12,1.51,1459,1459,1500,1500,5.6,0,3,1,1
403,84727972,1008,-232,2146,580,-11,110,-174,-0.11328125,1.0478515625,0.283203125,-0.3353658536585366,3.353658536585366,-5.3048780487804885,-0.059,-0.068,1.015,1.23,-0.08,0.03,0.62,-1.12,1.51,1459,1459,1500,1500,5.53,0,3,1,1
404,84728981,1009,-649,2175,139,-23,134,-195,-0.31689453125,1.06201171875,0.06787109375,-0.701219512195122,4.085365853658537,-5.945121951219512,-0.061,-0.007,1.022,2.8,0.04,1.47,0.61,-1.11,1.51,1459,1459,1500,1500,4.55,0,3,1,1
405,84729989,1008,-804,1880,-412,21,109,-103,-0.392578125,0.91796875,-0.201171875,0.6402439024390244,3.3231707317073176,-3.1402439024390247,-0.019,0.056,1.006,2.9,-0.31,2.17,0.61,-1.11,1.51,1459,1459,1500,1500,4.42,0,3,1,1
406,84730996,1007,-671,1625,-681,53,53,9,-0.32763671875,0.79345703125,-0.33251953125,1.6158536585365855,1.6158536585365855,0.27439024390243905,0.036,0.099,0.972,1.83,-0.88,2.07,0.6,-1.11,1.52,1459,1459,1500,1500,6.52,0,3,1,1
407,84732004,1008,38,1876,-374,1,-60,85,0.0185546875,0.916015625,-0.1826171875,0.030487804878048783,-1.829268292682927,2.5914634146341466,0.059,0.08,0.963,0.34,-0.72,0.85,0.6,-1.12,1.52,1459,1459,1500,1500,5.9,0,3,1,1
408,84733013,1009,780,2165,-10,-68,-143,144,0.380859375,1.05712890625,-0.0048828125,-2.073170731707317,-4.359756097560976,4.390243902439025,0.05,0.007,0.978,-1.24,0.07,-0.8,0.6,-1.12,1.52,1459,1459,1500,1500,2.12,0,3,1,1
409,84734021,1008,720,2140,-101,-58,-150,143,0.3515625,1.044921875,-0.04931640625,-1.7682926829268295,-4.573170731707317,4.359756097560976,0.05,-0.049,0.988,-2.29,0.51,-1.97,0.6,-1.12,1.52,1459,1459,1500,1500,2.89,0,3,1,1
410,84735029,1008,381,2158,-5,-7,-97,61,0.18603515625,1.0537109375,-0.00244140625,-0.2134146341463415,-2.957317073170732,1.8597560975609757,0.042,-0.071,0.999,-2.15,0.27,-2.21,0.61,-1.12,1.51,1459,1459,1500,1500,3.71,0,3,1,1
411,84736038,1009,324,2174,509,-11,19,-9,0.158203125,1.0615234375,0.24853515625,-0.3353658536585366,0.5792682926829269,-0.27439024390243905,-0.003,-0.084,1.009,-1.34,0.16,-1.19,0.61,-1.12,1.51,1459,1459,1500,1500,4.4,0,3,1,1
412,84737046,1008,-51,2063,473,-20,127,-71,-0.02490234375,1.00732421875,0.23095703125,-0.6097560975609757,3.8719512195121957,-2.164634146341464,-0.039,-0.067,1.008,-0.18,0.18,0.58,0.61,-1.12,1.51,1459,1459,1500,1500,4.64,0,3,1,1
413,84738054,1008,-487,2031,12,22,156,-175,-0.23779296875,0.99169921875,0.005859375,0.6707317073170732,4.75609756097561,-5.335365853658537,-0.034,-0.019,1.006,1.65,-0.23,2.06,0.61,-1.11,1.51,1459,1459,1500,1500,3.09,0,3,1,1
414,84739064,1010,-415,2079,-222,38,137,-183,-0.20263671875,1.01513671875,-0.1083984375,1.1585365853658538,4.176829268292683,-5.579268292682928,-0.011,0.016,1.007,2.96,-0.67,2.86,0.61,-1.11,1.52,1459,1459,1500,1500,2.34,0,3,1,1
415,84740071,1007,-517,1935,-474,35,79,-53,-0.25244140625,0.94482421875,-0.2314453125,1.0670731707317074,2.408536585365854,-1.6158536585365855,0.027,0.053,0.997,2.5,-0.93,2.79,0.6,-1.12,1.52,1459,1459,1500,1500,3.71,0,3,1,1
416,84741080,1009,-564,1730,-629,34,-43,58,-0.275390625,0.8447265625,-0.30712890625,1.0365853658536586,-1.3109756097560976,1.7682926829268295,0.071,0.088,0.973,1.06,-1.1,1.5,0.6,-1.12,1.52,1459,1459,1500,1500,6.57,0,3,1,1
417,84742088,1008,195,1926,-312,-17,-180,114,0.09521484375,0.9404296875,-0.15234375,-0.5182926829268293,-5.487804878048781,3.4756097560975614,0.084,0.059,0.968,-0.45,-0.69,-0.74,0.6,-1.12,1.52,1459,1459,1500,1500,5.63,0,3,1,1
418,84743096,1008,782,2166,171,-67,-233,140,0.3818359375,1.0576171875,0.08349609375,-2.0426829268292686,-7.103658536585367,4.2682926829268295,0.057,-0.01,0.982,-1.74,0.09,-2.78,0.6,-1.12,1.52,1459,1459,1500,1500,2.23,0,3,1,1
419,84744105,1009,591,2114,440,-51,-147,97,0.28857421875,1.0322265625,0.21484375,-1.5548780487804879,-4.481707317073171,2.957317073170732,0.014,-0.054,0.99,-2.15,0.44,-3.26,0.6,-1.12,1.51,1459,1459,1500,1500,2.56,0,3,1,1
420,84745113,1008,406,2144,524,-21,-2,25,0.1982421875,1.046875,0.255859375,-0.6402439024390244,-0.06097560975609757,0.7621951219512195,-0.028,-0.077,0.999,-1.69,0.38,-2.1,0.61,-1.12,1.51,1459,1459,1500,1500,4.7,0,3,1,1
421,84746123,1010,226,2169,380,-11,111,-27,0.1103515625,1.05908203125,0.185546875,-0.3353658536585366,3.3841463414634148,-0.8231707317073171,-0.053,-0.082,1.008,-0.86,0.23,-0.18,0.61,-1.12,1.51,1459,1459,1500,1500,5.8,0,3,1,1
422,84747130,1007,-218,2039,-35,4,160,-97,-0.1064453125,0.99560546875,-0.01708984375,0.12195121951219513,4.878048780487806,-2.957317073170732,-0.042,-0.052,1.006,0.4,-0.01,1.59,0.61,-1.12,1.51,1459,1459,1500,1500,4.24,0,3,1,1
423,84748138,1008,-332,1971,-372,28,149,-162,-0.162109375,0.96240234375,-0.181640625,0.853658536585366,4.5426829268292686,-4.939024390243903,-0.006,-0.018,0.999,1.91,-0.42,2.66,0.61,-1.12,1.52,1459,1459,1500,1500,1.56,0,3,1,1
424,84749147,1009,-226,1944,-462,38,110,-117,-0.1103515625,0.94921875,-0.2255859375,1.1585365853658538,3.353658536585366,-3.5670731707317076,0.03,0.001,0.991,2.46,-0.8,2.98,0.61,-1.12,1.52,1459,1459,1500,1500,0.95,0,3,1,1
425,84750155,1008,-483,1854,-535,40,-1,-3,-0.23583984375,0.9052734375,-0.26123046875,1.2195121951219514,-0.030487804878048783,-0.09146341463414635,0.066,0.038,0.977,1.66,-1.07,2.06,0.6,-1.12,1.52,1459,1459,1500,1500,4.01,0,3,1,1
426,84751163,1008,-379,1909,-439,23,-161,65,-0.18505859375,0.93212890625,-0.21435546875,0.701219512195122,-4.908536585365854,1.981707317073171,0.09,0.062,0.97,0.43,-1.08,-0.18,0.6,-1.12,1.52,1459,1459,1500,1500,5.97,0,3,1,1
427,84752172,1009,317,2143,-7,-42,-239,115,0.15478515625,1.04638671875,-0.00341796875,-1.2804878048780488,-7.286585365853659,3.50609756097561,0.076,0.027,0.982,-0.88,-0.42,-2.47,0.6,-1.12,1.52,1459,1459,1500,1500,3.99,0,3,1,1
428,84753180,1008,472,2172,377,-74,-203,127,0.23046875,1.060546875,0.18408203125,-2.25609756097561,-6.189024390243903,3.8719512195121957,0.035,-0.013,0.995,-1.89,0.34,-3.62,0.6,-1.12,1.52,1459,1459,1500,1500,0.9,0,3,1,1
429,84754188,1008,249,2074,529,-42,-82,42,0.12158203125,1.0126953125,0.25830078125,-1.2804878048780488,-2.5,1.2804878048780488,-0.011,-0.03,0.997,-1.69,0.52,-3.16,0.6,-1.12,1.51,1459,1459,1500,1500,2.11,0,3,1,1
430,84755197,1009,411,2113,531,-35,71,-43,0.20068359375,1.03173828125,0.25927734375,-1.0670731707317074,2.164634146341464,-1.3109756097560976,-0.05,-0.057,1.003,-0.69,0.57,-1.29,0.61,-1.12,1.51,1459,1459,1500,1500,4.82,0,3,1,1
431,84756205,1008,381,2058,345,-46,176,-55,0.18603515625,1.0048828125,0.16845703125,-1.402439024390244,5.365853658536586,-1.676829268292683,-0.069,-0.077,1.003,0.08,0.71,1.02,0.61,-1.12,1.51,1459,1459,1500,1500,6.35,0,3,1,1
432,84757213,1008,-168,1959,-302,-14,214,-63,-0.08203125,0.95654296875,-0.1474609375,-0.426829268292683,6.52439024390244,-1.9207317073170733,-0.035,-0.052,0.996,0.69,0.48,2.94,0.61,-1.11,1.51,1459,1459,1500,1500,3.94,0,3,1,1
433,84758222,1009,-447,1964,-947,52,157,-92,-0.21826171875,0.958984375,-0.46240234375,1.5853658536585367,4.786585365853659,-2.804878048780488,0.043,-0.009,0.99,1.39,-0.33,3.65,0.61,-1.12,1.52,1459,1459,1500,1500,1.42,0,3,1,1
434,84759230,1008,-227,1935,-702,70,25,-59,-0.11083984375,0.94482421875,-0.3427734375,2.1341463414634148,0.7621951219512195,-1.7987804878048783,0.091,0.009,0.982,1.52,-1.07,2.77,0.61,-1.12,1.52,1459,1459,1500,1500,4.34,0,3,1,1
435,84760238,1008,-169,1931,-208,15,-97,41,-0.08251953125,0.94287109375,-0.1015625,0.4573170731707317,-2.957317073170732,1.25,0.092,0.021,0.976,0.58,-0.99,0.94,0.6,-1.12,1.52,1459,1459,1500,1500,4.69,0,3,1,1
436,84761247,1009,-222,2089,-126,-35,-215,103,-0.1083984375,1.02001953125,-0.0615234375,-1.0670731707317074,-6.5548780487804885,3.1402439024390247,0.087,0.034,0.983,-0.66,-0.43,-1.47,0.6,-1.12,1.52,1459,1459,1500,1500,4.77,0,3,1,1
437,84762255,1008,96,2200,58,-50,-299,95,0.046875,1.07421875,0.0283203125,-1.524390243902439,-9.115853658536587,2.8963414634146343,0.069,0.021,0.997,-1.41,0.08,-3.94,0.6,-1.13,1.52,1459,1459,1500,1500,3.41,0,3,1,1
438,84763264,1009,383,2082,534,-45,-229,52,0.18701171875,1.0166015625,0.2607421875,-1.3719512195121952,-6.981707317073171,1.5853658536585367,0.017,-0.011,1.0,-1.48,0.38,-4.87,0.61,-1.13,1.51,1459,1459,1500,1500,0.15,0,3,1,1
439,84764272,1008,316,2025,811,-28,-23,-24,0.154296875,0.98876953125,0.39599609375,-0.853658536585366,-0.701219512195122,-0.7317073170731708,-0.048,-0.033,0.998,-0.74,0.4,-3.39,0.61,-1.12,1.51,1459,1459,1500,1500,4.12,0,3,1,1
440,84765280,1008,357,2064,624,-27,162,-76,0.17431640625,1.0078125,0.3046875,-0.8231707317073171,4.939024390243903,-2.3170731707317076,-0.089,-0.056,1.0,0.26,0.41,-0.51,0.61,-1.12,1.51,1459,1459,1500,1500,6.73,0,3,1,1
441,84766289,1009,300,2016,174,-39,233,-45,0.146484375,0.984375,0.0849609375,-1.1890243902439026,7.103658536585367,-1.3719512195121952,-0.088,-0.07,0.997,0.63,0.54,2.11,0.61,-1.12,1.51,1459,1459,1500,1500,7.06,0,3,1,1
442,84767297,1008,-263,1925,-600,-7,207,-5,-0.12841796875,0.93994140625,-0.29296875,-0.2134146341463415,6.310975609756098,-0.15243902439024393,-0.027,-0.038,0.988,0.46,0.3,3.6,0.61,-1.11,1.51,1459,1459,1500,1500,3.19,0,3,1,1
443,84768305,1008,-553,1918,-1175,64,96,-8,-0.27001953125,0.9365234375,-0.57373046875,1.9512195121951221,2.9268292682926833,-0.24390243902439027,0.067,0.01,0.98,0.38,-0.58,3.46,0.61,-1.12,1.52,1459,1459,1500,1500,3.06,0,3,1,1
444,84769312,1007,-242,2040,-747,59,-58,18,-0.1181640625,0.99609375,-0.36474609375,1.7987804878048783,-1.7682926829268295,0.5487804878048781,0.114,0.027,0.982,0.06,-1.12,1.8,0.61,-1.12,1.52,1459,1459,1500,1500,5.95,0,3,1,1
445,84770320,1008,-44,2043,-180,-13,-182,73,-0.021484375,0.99755859375,-0.087890625,-0.39634146341463417,-5.548780487804878,2.225609756097561,0.11,0.026,0.985,-0.7,-0.74,-0.56,0.61,-1.12,1.52,1459,1459,1500,1500,5.68,0,3,1,1
446,84771328,1008,27,2071,-96,-38,-264,76,0.01318359375,1.01123046875,-0.046875,-1.1585365853658538,-8.048780487804878,2.3170731707317076,0.1,0.02,0.989,-1.25,-0.24,-2.98,0.61,-1.13,1.52,1459,1459,1500,1500,4.98,0,3,1,1
447,84772336,1008,285,2173,381,-40,-272,31,0.13916015625,1.06103515625,0.18603515625,-1.2195121951219514,-8.292682926829269,0.9451219512195123,0.054,-0.005,1.0,-1.15,0.11,-4.67,0.61,-1.13,1.51,1459,1459,1500,1500,2.03,0,3,1,1
448,84773345,1009,360,2062,947,-45,-118,-29,0.17578125,1.0068359375,0.46240234375,-1.3719512195121952,-3.5975609756097566,-0.8841463414634148,-0.027,-0.032,1.001,-0.48,0.4,-4.22,0.61,-1.13,1.51,1459,1459,1500,1500,2.95,0,3,1,1
449,84774353,1008,192,1989,726,-26,141,-88,0.09375,0.97119140625,0.3544921875,-0.7926829268292683,4.298780487804878,-2.682926829268293,-0.079,-0.042,0.996,0.56,0.4,-1.28,0.61,-1.12,1.51,1459,1459,1500,1500,5.94,0,3,1,1
450,84775361,1008,88,2024,282,-17,330,-83,0.04296875,0.98828125,0.1376953125,-0.5182926829268293,10.060975609756099,-2.530487804878049,-0.088,-0.042,0.995,1.21,0.3,2.59,0.61,-1.12,1.51,1459,1459,1500,1500,6.45,0,3,1,1
451,84776370,1009,-150,1982,-142,-26,342,0,-0.0732421875,0.9677734375,-0.0693359375,-0.7926829268292683,10.426829268292684,0.0,-0.063,-0.023,0.991,0.8,0.33,5.3,0.61,-1.12,1.51,1459,1459,1500,1500,4.84,0,3,1,1
452,84777378,1008,-423,1952,-830,-18,174,60,-0.20654296875,0.953125,-0.4052734375,-0.5487804878048781,5.3048780487804885,1.829268292682927,0.01,0.012,0.985,-0.08,0.27,5.39,0.61,-1.12,1.52,1459,1459,1500,1500,1.43,0,3,1,1
453,84778385,1007,-215,2049,-1134,1,-29,68,-0.10498046875,1.00048828125,-0.5537109375,0.030487804878048783,-0.8841463414634148,2.073170731707317,0.097,0.027,0.987,-0.75,0.04,3.37,0.61,-1.12,1.52,1459,1459,1500,1500,5.0,0,3,1,1
454,84779394,1009,186,2094,-786,-12,-154,73,0.0908203125,1.0224609375,-0.3837890625,-0.3658536585365854,-4.695121951219512,2.225609756097561,0.142,0.008,0.993,-1.25,0.01,0.76,0.61,-1.12,1.52,1459,1459,1500,1500,7.13,0,3,1,1
455,84780402,1008,229,2048,-299,-21,-229,55,0.11181640625,1.0,-0.14599609375,-0.6402439024390244,-6.981707317073171,1.676829268292683,0.143,-0.01,0.994,-1.4,0.09,-1.73,0.61,-1.12,1.52,1459,1459,1500,1500,7.06,0,3,1,1
456,84781410,1008,178,2114,409,-17,-233,-2,0.0869140625,1.0322265625,0.19970703125,-0.5182926829268293,-7.103658536585367,-0.06097560975609757,0.088,-0.022,1.0,-0.92,0.1,-3.44,0.61,-1.13,1.52,1459,1459,1500,1500,3.99,0,3,1,1
457,84782419,1009,141,2093,1129,-52,-138,-43,0.06884765625,1.02197265625,0.55126953125,-1.5853658536585367,-4.207317073170732,-1.3109756097560976,-0.012,-0.029,1.003,-0.18,0.46,-3.61,0.61,-1.12,1.51,1459,1459,1500,1500,2.15,0,3,1,1
458,84783427,1008,-100,1966,1015,-43,27,-81,-0.048828125,0.9599609375,0.49560546875,-1.3109756097560976,0.8231707317073171,-2.4695121951219514,-0.089,-0.017,0.996,0.69,0.61,-2.04,0.61,-1.12,1.51,1459,1459,1500,1500,6.26,0,3,1,1
459,84784436,1009,-209,1922,348,10,214,-108,-0.10205078125,0.9384765625,0.169921875,0.30487804878048785,6.52439024390244,-3.2926829268292686,-0.102,0.001,0.987,1.55,0.17,0.91,0.61,-1.12,1.51,1459,1459,1500,1500,7.07,0,3,1,1
460,84785444,1008,-175,1904,-167,-2,320,-53,-0.08544921875,0.9296875,-0.08154296875,-0.06097560975609757,9.756097560975611,-1.6158536585365855,-0.073,0.014,0.978,1.57,0.0,3.95,0.61,-1.11,1.52,1459,1459,1500,1500,5.59,0,3,1,1
461,84786452,1008,-231,1967,-616,-42,257,53,-0.11279296875,0.96044921875,-0.30078125,-1.2804878048780488,7.835365853658537,1.6158536585365855,-0.013,0.03,0.975,0.49,0.3,5.34,0.61,-1.11,1.52,1459,1459,1500,1500,3.07,0,3,1,1
462,84787461,1009,-22,2084,-1025,-43,49,118,-0.0107421875,1.017578125,-0.50048828125,-1.3109756097560976,1.4939024390243905,3.5975609756097566,0.067,0.027,0.982,-0.87,0.5,4.14,0.61,-1.11,1.53,1459,1459,1500,1500,3.58,0,3,1,1
463,84788469,1008,455,2108,-1013,-26,-172,126,0.22216796875,1.029296875,-0.49462890625,-0.7926829268292683,-5.2439024390243905,3.8414634146341466,0.135,-0.012,0.989,-1.87,0.47,1.08,0.61,-1.12,1.53,1459,1459,1500,1500,6.68,0,3,1,1
464,84789477,1008,616,2066,-457,-23,-289,89,0.30078125,1.0087890625,-0.22314453125,-0.701219512195122,-8.810975609756099,2.713414634146342,0.149,-0.058,0.992,-2.16,0.41,-2.13,0.61,-1.12,1.53,1459,1459,1500,1500,7.91,0,3,1,1
465,84790486,1009,299,2095,191,0,-273,11,0.14599609375,1.02294921875,0.09326171875,0.0,-8.323170731707318,0.3353658536585366,0.11,-0.072,0.997,-1.55,0.14,-4.11,0.61,-1.12,1.52,1459,1459,1500,1500,6.27,0,3,1,1
466,84791494,1008,-106,2141,817,4,-158,-69,-0.0517578125,1.04541015625,0.39892578125,0.12195121951219513,-4.817073170731708,-2.103658536585366,0.03,-0.052,1.005,-0.34,-0.07,-4.26,0.62,-1.12,1.52,1459,1459,1500,1500,2.43,0,3,1,1
467,84792526,1032,-335,2011,1192,-50,-29,-99,-0.16357421875,0.98193359375,0.58203125,-1.524390243902439,-0.8841463414634148,-3.0182926829268295,-0.067,-0.018,1.001,0.77,0.32,-3.04,0.62,-1.12,1.51,1459,1459,1500,1500,4.97,0,3,1,1
468,84793511,985,-421,1911,680,-44,90,-103,-0.20556640625,0.93310546875,0.33203125,-1.3414634146341464,2.7439024390243905,-3.1402439024390247,-0.109,0.017,0.99,1.55,0.53,-1.02,0.61,-1.12,1.51,1459,1459,1500,1500,7.58,0,3,1,1
469,84794519,1008,-409,1966,-207,11,201,-83,-0.19970703125,0.9599609375,-0.10107421875,0.3353658536585366,6.128048780487806,-2.530487804878049,-0.075,0.046,0.985,1.87,0.11,1.45,0.61,-1.11,1.51,1459,1459,1500,1500,6.42,0,3,1,1
470,84795528,1009,-304,1953,-644,0,209,-4,-0.1484375,0.95361328125,-0.314453125,0.0,6.371951219512195,-0.12195121951219513,-0.013,0.062,0.98,1.28,-0.05,3.18,0.61,-1.11,1.52,1459,1459,1500,1500,4.67,0,3,1,1
471,84796535,1007,-18,2016,-787,-50,92,88,-0.0087890625,0.984375,-0.38427734375,-1.524390243902439,2.804878048780488,2.682926829268293,0.049,0.053,0.981,-0.05,0.33,3.14,0.6,-1.11,1.52,1459,1459,1500,1500,4.14,0,3,1,1
472,84797544,1009,446,2160,-927,-63,-64,142,0.2177734375,1.0546875,-0.45263671875,-1.9207317073170733,-1.9512195121951221,4.329268292682928,0.113,0.01,0.992,-1.48,0.73,1.52,0.6,-1.12,1.52,1459,1459,1500,1500,5.53,0,3,1,1
473,84798552,1008,746,2149,-585,-43,-217,139,0.3642578125,1.04931640625,-0.28564453125,-1.3109756097560976,-6.615853658536586,4.237804878048781,0.14,-0.048,1.001,-2.41,0.79,-1.1,0.61,-1.12,1.52,1459,1459,1500,1500,7.19,0,3,1,1
474,84799560,1008,658,2084,249,-20,-263,74,0.3212890625,1.017578125,0.12158203125,-0.6097560975609757,-8.01829268292683,2.25609756097561,0.099,-0.091,1.004,-2.36,0.6,-3.33,0.61,-1.12,1.52,1459,1459,1500,1500,6.43,0,3,1,1
475,84800568,1008,260,2082,603,15,-158,-21,0.126953125,1.0166015625,0.29443359375,0.4573170731707317,-4.817073170731708,-0.6402439024390244,0.036,-0.097,1.006,-1.36,0.11,-3.74,0.62,-1.12,1.51,1459,1459,1500,1500,5.0,0,3,1,1
476,84801577,1009,-281,2132,737,17,-29,-119,-0.13720703125,1.041015625,0.35986328125,0.5182926829268293,-0.8841463414634148,-3.628048780487805,-0.026,-0.06,1.011,0.29,-0.22,-2.69,0.62,-1.12,1.51,1459,1459,1500,1500,3.81,0,3,1,1
477,84802585,1008,-540,2116,797,-33,78,-164,-0.263671875,1.033203125,0.38916015625,-1.0060975609756098,2.378048780487805,-5.0,-0.083,-0.008,1.015,1.86,0.05,-0.91,0.62,-1.12,1.51,1459,1459,1500,1500,5.84,0,3,1,1
478,84803593,1008,-521,1978,19,-25,163,-120,-0.25439453125,0.9658203125,0.00927734375,-0.7621951219512195,4.969512195121951,-3.658536585365854,-0.071,0.032,1.007,2.45,0.15,1.14,0.61,-1.11,1.51,1459,1459,1500,1500,5.77,0,3,1,1
479,84804602,1009,-611,1825,-663,18,171,-42,-0.29833984375,0.89111328125,-0.32373046875,0.5487804878048781,5.213414634146342,-1.2804878048780488,-0.009,0.074,0.988,2.05,-0.21,2.59,0.61,-1.11,1.51,1459,1459,1500,1500,5.22,0,3,1,1
480,84805610,1008,-402,1834,-614,-5,86,37,-0.1962890625,0.8955078125,-0.2998046875,-0.15243902439024393,2.6219512195121952,1.128048780487805,0.039,0.094,0.974,0.98,-0.22,2.68,0.6,-1.11,1.52,1459,1459,1500,1500,6.25,0,3,1,1
481,84806618,1008,276,2063,-552,-65,-55,120,0.134765625,1.00732421875,-0.26953125,-1.981707317073171,-1.676829268292683,3.658536585365854,0.076,0.057,0.979,-0.57,0.38,1.31,0.6,-1.11,1.52,1459,1459,1500,1500,5.19,0,3,1,1
482,84807627,1009,735,2163,-499,-68,-166,166,0.35888671875,1.05615234375,-0.24365234375,-2.073170731707317,-5.060975609756098,5.060975609756098,0.102,-0.008,0.991,-2.08,0.81,-0.73,0.6,-1.12,1.52,1459,1459,1500,1500,4.8,0,3,1,1
483,84808635,1008,812,2088,-194,-14,-180,135,0.396484375,1.01953125,-0.0947265625,-0.426829268292683,-5.487804878048781,4.115853658536586,0.101,-0.069,0.995,-2.77,0.55,-2.23,0.61,-1.12,1.52,1459,1459,1500,1500,5.78,0,3,1,1
484,84809643,1008,712,2083,379,13,-116,55,0.34765625,1.01708984375,0.18505859375,0.39634146341463417,-3.536585365853659,1.676829268292683,0.056,-0.113,0.999,-2.41,0.1,-2.58,0.61,-1.12,1.51,1459,1459,1500,1500,6.23,0,3,1,1
485,84810652,1009,260,2113,765,4,-2,-45,0.126953125,1.03173828125,0.37353515625,0.12195121951219513,-0.06097560975609757,-1.3719512195121952,-0.012,-0.115,1.004,-1.15,-0.1,-1.65,0.62,-1.12,1.51,1459,1459,1500,1500,6.23,0,3,1,1
486,84811658,1006,-415,2194,634,-11,95,-155,-0.20263671875,1.0712890625,0.3095703125,-0.3353658536585366,2.8963414634146343,-4.725609756097561,-0.059,-0.065,1.015,0.8,-0.08,-0.04,0.62,-1.12,1.51,1459,1459,1500,1500,5.41,0,3,1,1
487,84812667,1009,-760,2228,264,-24,141,-197,-0.37109375,1.087890625,0.12890625,-0.7317073170731708,4.298780487804878,-6.00609756097561,-0.07,0.003,1.026,2.53,0.05,1.49,0.62,-1.11,1.51,1459,1459,1500,1500,5.11,0,3,1,1
488,84813675,1008,-756,1950,-251,9,151,-116,-0.369140625,0.9521484375,-0.12255859375,0.27439024390243905,4.603658536585367,-3.536585365853659,-0.039,0.061,1.014,2.86,-0.18,2.62,0.61,-1.11,1.52,1459,1459,1500,1500,5.3,0,3,1,1
489,84814683,1008,-591,1571,-660,55,93,-5,-0.28857421875,0.76708984375,-0.322265625,1.676829268292683,2.8353658536585367,-0.15243902439024393,0.017,0.097,0.975,1.95,-0.81,2.78,0.61,-1.11,1.52,1459,1459,1500,1500,6.34,0,3,1,1
490,84815692,1009,-42,1722,-545,21,-21,70,-0.0205078125,0.8408203125,-0.26611328125,0.6402439024390244,-0.6402439024390244,2.1341463414634148,0.057,0.085,0.954,0.57,-0.89,1.72,0.6,-1.11,1.52,1459,1459,1500,1500,6.17,0,3,1,1
491,84816700,1008,611,2208,-184,-66,-130,134,0.29833984375,1.078125,-0.08984375,-2.0121951219512195,-3.963414634146342,4.085365853658537,0.062,0.024,0.973,-0.98,-0.05,-0.09,0.6,-1.12,1.52,1459,1459,1500,1500,3.26,0,3,1,1
492,84817708,1008,717,2289,-172,-74,-169,156,0.35009765625,1.11767578125,-0.083984375,-2.25609756097561,-5.152439024390245,4.75609756097561,0.065,-0.034,0.996,-2.25,0.58,-1.69,0.61,-1.12,1.52,1459,1459,1500,1500,2.99,0,3,1,1
493,84818717,1009,519,2129,-134,-1,-114,102,0.25341796875,1.03955078125,-0.0654296875,-0.030487804878048783,-3.4756097560975614,3.1097560975609757,0.065,-0.069,1.003,-2.54,0.26,-2.2,0.61,-1.12,1.52,1459,1459,1500,1500,4.25,0,3,1,1
494,84819725,1008,437,2075,359,21,-42,14,0.21337890625,1.01318359375,0.17529296875,0.6402439024390244,-1.2804878048780488,0.426829268292683,0.027,-0.092,1.004,-1.84,-0.16,-1.8,0.61,-1.12,1.51,1459,1459,1500,1500,4.65,0,3,1,1
495,84820734,1009,170,2041,613,-22,33,-92,0.0830078125,0.99658203125,0.29931640625,-0.6707317073170732,1.0060975609756098,-2.804878048780488,-0.024,-0.09,1.003,-0.29,-0.01,-0.77,0.62,-1.12,1.51,1459,1459,1500,1500,5.2,0,3,1,1
496,84821742,1008,-242,2127,369,-50,123,-186,-0.1181640625,1.03857421875,0.18017578125,-1.524390243902439,3.7500000000000004,-5.670731707317073,-0.049,-0.057,1.009,1.69,0.36,0.82,0.62,-1.11,1.51,1459,1459,1500,1500,4.71,0,3,1,1
497,84822750,1008,-515,2218,-15,-26,159,-175,-0.25146484375,1.0830078125,-0.00732421875,-0.7926829268292683,4.847560975609756,-5.335365853658537,-0.04,-0.008,1.02,2.9,0.37,2.25,0.61,-1.11,1.52,1459,1459,1500,1500,3.37,0,3,1,1
498,84823759,1009,-825,1915,-408,44,120,-70,-0.40283203125,0.93505859375,-0.19921875,1.3414634146341464,3.658536585365854,-2.1341463414634148,-0.002,0.056,1.007,2.63,-0.33,2.81,0.61,-1.11,1.52,1459,1459,1500,1500,4.03,0,3,1,1
499,84824767,1008,-719,1588,-544,65,0,22,-0.35107421875,0.775390625,-0.265625,1.981707317073171,0.0,0.6707317073170732,0.04,0.103,0.97,1.52,-1.01,1.95,0.6,-1.11,1.52,1459,1459,1500,1500,6.8,0,3,1,1
500,84825774,1007,191,1845,-262,-17,-137,95,0.09326171875,0.90087890625,-0.1279296875,-0.5182926829268293,-4.176829268292683,2.8963414634146343,0.054,0.072,0.959,0.03,-0.63,0.0,0.6,-1.12,1.52,1459,1459,1500,1500,5.34,0,3,1,1
501,84826783,1009,820,2193,-24,-82,-175,155,0.400390625,1.07080078125,-0.01171875,-2.5,-5.335365853658537,4.725609756097561,0.047,-0.002,0.977,-1.56,0.28,-1.7,0.6,-1.12,1.52,1459,1459,1500,1500,1.71,0,3,1,1
502,84827791,1008,558,2189,-41,-43,-130,125,0.2724609375,1.06884765625,-0.02001953125,-1.3109756097560976,-3.963414634146342,3.810975609756098,0.043,-0.045,0.991,-2.32,0.49,-2.37,0.61,-1.12,1.52,1459,1459,1500,1500,2.44,0,3,1,1
503,84828799,1008,366,2140,264,-4,-53,29,0.1787109375,1.044921875,0.12890625,-0.12195121951219513,-1.6158536585365855,0.8841463414634148,0.015,-0.066,1.0,-1.84,0.23,-2.03,0.61,-1.12,1.51,1459,1459,1500,1500,3.21,0,3,1,1
504,84829808,1009,350,2119,565,-18,50,-25,0.1708984375,1.03466796875,0.27587890625,-0.5487804878048781,1.524390243902439,-0.7621951219512195,-0.03,-0.083,1.005,-0.98,0.2,-0.75,0.61,-1.11,1.51,1459,1459,1500,1500,5.0,0,3,1,1
505,84830816,1008,-162,2097,198,-8,130,-86,-0.0791015625,1.02392578125,0.0966796875,-0.24390243902439027,3.963414634146342,-2.6219512195121952,-0.04,-0.057,1.008,0.21,0.08,0.91,0.61,-1.11,1.51,1459,1459,1500,1500,4.34,0,3,1,1
506,84831823,1007,-454,2135,-196,27,157,-175,-0.2216796875,1.04248046875,-0.095703125,0.8231707317073171,4.786585365853659,-5.335365853658537,-0.019,-0.013,1.013,1.92,-0.34,2.29,0.61,-1.11,1.52,1459,1459,1500,1500,2.21,0,3,1,1
507,84832832,1009,-237,2036,-274,29,134,-143,-0.11572265625,0.994140625,-0.1337890625,0.8841463414634148,4.085365853658537,-4.359756097560976,0.005,0.007,1.01,2.73,-0.65,2.98,0.61,-1.11,1.52,1459,1459,1500,1500,1.32,0,3,1,1
508,84833840,1008,-449,1737,-461,40,42,-17,-0.21923828125,0.84814453125,-0.22509765625,1.2195121951219514,1.2804878048780488,-0.5182926829268293,0.039,0.04,0.984,1.98,-0.97,2.49,0.6,-1.11,1.52,1459,1459,1500,1500,3.22,0,3,1,1
509,84834848,1008,-496,1741,-629,57,-113,51,-0.2421875,0.85009765625,-0.30712890625,1.7378048780487807,-3.4451219512195124,1.5548780487804879,0.082,0.072,0.963,0.79,-1.36,0.59,0.6,-1.12,1.52,1459,1459,1500,1500,6.19,0,3,1,1
510,84835857,1009,308,2120,-260,-15,-255,92,0.150390625,1.03515625,-0.126953125,-0.4573170731707317,-7.77439024390244,2.804878048780488,0.089,0.037,0.974,-0.41,-0.88,-2.11,0.6,-1.12,1.52,1459,1459,1500,1500,4.97,0,3,1,1
511,84836865,1008,689,2187,344,-99,-263,130,0.33642578125,1.06787109375,0.16796875,-3.0182926829268295,-8.01829268292683,3.963414634146342,0.048,-0.021,0.989,-1.61,0.28,-4.0,0.6,-1.12,1.52,1459,1459,1500,1500,1.81,0,3,1,1
512,84837873,1008,373,2013,427,-66,-130,82,0.18212890625,0.98291015625,0.20849609375,-2.0121951219512195,-3.963414634146342,2.5,0.007,-0.047,0.988,-1.91,0.73,-3.9,0.61,-1.12,1.51,1459,1459,1500,1500,2.23,0,3,1,1
513,84838882,1009,330,2093,370,-3,26,-6,0.1611328125,1.02197265625,0.1806640625,-0.09146341463414635,0.7926829268292683,-0.1829268292682927,-0.022,-0.065,0.993,-1.22,0.38,-2.24,0.61,-1.12,1.51,1459,1459,1500,1500,3.96,0,3,1,1
514,84839889,1007,249,2170,532,-7,132,-49,0.12158203125,1.0595703125,0.259765625,-0.2134146341463415,4.024390243902439,-1.4939024390243905,-0.059,-0.074,1.004,-0.31,0.19,-0.06,0.61,-1.12,1.51,1459,1459,1500,1500,5.79,0,3,1,1
515,84840897,1008,-209,2066,80,-18,164,-93,-0.10205078125,1.0087890625,0.0390625,-0.5487804878048781,5.0,-2.8353658536585367,-0.056,-0.046,1.005,0.72,0.18,1.71,0.61,-1.11,1.51,1459,1459,1500,1500,4.78,0,3,1,1
516,84841904,1007,-349,1967,-699,15,131,-133,-0.17041015625,0.96044921875,-0.34130859375,0.4573170731707317,3.9939024390243905,-4.0548780487804885,0.006,-0.011,0.997,1.83,-0.16,2.56,0.61,-1.11,1.52,1459,1459,1500,1500,0.74,0,3,1,1
517,84842912,1008,-200,1895,-710,45,63,-80,-0.09765625,0.92529296875,-0.3466796875,1.3719512195121952,1.9207317073170733,-2.439024390243903,0.06,0.005,0.986,2.02,-0.69,2.43,0.61,-1.11,1.52,1459,1459,1500,1500,2.57,0,3,1,1
518,84843921,1009,-325,1862,-469,51,-44,25,-0.15869140625,0.9091796875,-0.22900390625,1.5548780487804879,-1.3414634146341464,0.7621951219512195,0.087,0.029,0.974,1.08,-1.11,1.26,0.6,-1.12,1.52,1459,1459,1500,1500,4.64,0,3,1,1
519,84844929,1008,-266,2012,-304,24,-178,72,-0.1298828125,0.982421875,-0.1484375,0.7317073170731708,-5.426829268292684,2.1951219512195124,0.096,0.045,0.975,-0.01,-1.12,-0.88,0.6,-1.12,1.52,1459,1459,1500,1500,5.61,0,3,1,1
520,84845936,1007,255,2182,159,-50,-266,86,0.12451171875,1.0654296875,0.07763671875,-1.524390243902439,-8.109756097560977,2.6219512195121952,0.069,0.018,0.989,-0.89,-0.36,-3.21,0.6,-1.12,1.51,1459,1459,1500,1500,3.33,0,3,1,1
521,84846945,1009,428,2107,527,-86,-221,82,0.208984375,1.02880859375,0.25732421875,-2.6219512195121952,-6.737804878048781,2.5,0.017,-0.017,0.995,-1.43,0.5,-4.3,0.6,-1.12,1.51,1459,1459,1500,1500,0.41,0,3,1,1
522,84847953,1008,182,2061,622,-48,-40,11,0.0888671875,1.00634765625,0.3037109375,-1.4634146341463417,-1.2195121951219514,0.3353658536585366,-0.033,-0.028,0.997,-1.07,0.69,-3.18,0.61,-1.12,1.51,1459,1459,1500,1500,3.22,0,3,1,1
523,84848961,1008,294,2086,589,-10,157,-63,0.1435546875,1.0185546875,0.28759765625,-0.30487804878048785,4.786585365853659,-1.9207317073170733,-0.073,-0.046,1.0,-0.08,0.42,-0.43,0.61,-1.12,1.51,1459,1459,1500,1500,5.72,0,3,1,1
524,84849969,1008,405,1996,305,-12,262,-63,0.19775390625,0.974609375,0.14892578125,-0.3658536585365854,7.987804878048781,-1.9207317073170733,-0.085,-0.07,0.996,0.58,0.27,2.47,0.61,-1.11,1.51,1459,1459,1500,1500,6.94,0,3,1,1
525,84850977,1008,-101,1948,-434,1,258,-48,-0.04931640625,0.951171875,-0.2119140625,0.030487804878048783,7.865853658536586,-1.4634146341463417,-0.038,-0.051,0.989,0.86,0.04,4.36,0.61,-1.11,1.51,1459,1459,1500,1500,4.1,0,3,1,1
526,84851986,1009,-449,1939,-1117,49,137,-57,-0.21923828125,0.94677734375,-0.54541015625,1.4939024390243905,4.176829268292683,-1.7378048780487807,0.054,-0.008,0.982,1.15,-0.6,4.38,0.61,-1.11,1.52,1459,1459,1500,1500,2.03,0,3,1,1
527,84852994,1008,-238,1955,-877,47,-29,-17,-0.1162109375,0.95458984375,-0.42822265625,1.4329268292682928,-0.8841463414634148,-0.5182926829268293,0.113,0.01,0.978,0.93,-1.01,2.71,0.61,-1.12,1.52,1459,1459,1500,1500,5.64,0,3,1,1
528,84854002,1008,-191,2038,-276,4,-146,67,-0.09326171875,0.9951171875,-0.134765625,0.12195121951219513,-4.451219512195122,2.0426829268292686,0.116,0.024,0.98,-0.06,-0.84,0.4,0.6,-1.12,1.52,1459,1459,1500,1500,6.01,0,3,1,1
529,84855010,1008,-222,2157,-21,-15,-228,89,-0.1083984375,1.05322265625,-0.01025390625,-0.4573170731707317,-6.951219512195123,2.713414634146342,0.099,0.037,0.992,-0.96,-0.54,-1.97,0.6,-1.12,1.52,1459,1459,1500,1500,5.38,0,3,1,1
530,84856018,1008,168,2176,406,-38,-262,55,0.08203125,1.0625,0.1982421875,-1.1585365853658538,-7.987804878048781,1.676829268292683,0.052,0.018,1.003,-1.2,-0.1,-3.89,0.6,-1.12,1.52,1459,1459,1500,1500,2.5,0,3,1,1
531,84857027,1009,433,2020,872,-56,-169,11,0.21142578125,0.986328125,0.42578125,-1.707317073170732,-5.152439024390245,0.3353658536585366,-0.023,-0.017,1.0,-0.92,0.36,-4.22,0.61,-1.12,1.51,1459,1459,1500,1500,2.49,0,3,1,1
532,84858035,1008,291,1984,707,-24,41,-53,0.14208984375,0.96875,0.34521484375,-0.7317073170731708,1.25,-1.6158536585365855,-0.074,-0.037,0.995,-0.08,0.35,-2.3,0.61,-1.12,1.51,1459,1459,1500,1500,5.61,0,3,1,1
533,84859043,1008,292,2045,341,0,229,-80,0.142578125,0.99853515625,0.16650390625,0.0,6.981707317073171,-2.439024390243903,-0.088,-0.054,0.996,0.75,0.1,0.88,0.61,-1.12,1.51,1459,1459,1500,1500,6.7,0,3,1,1
534,84860052,1009,184,2002,34,-16,279,-25,0.08984375,0.9775390625,0.0166015625,-0.48780487804878053,8.506097560975611,-0.7621951219512195,-0.077,-0.059,0.993,0.75,0.1,3.52,0.61,-1.11,1.51,1459,1459,1500,1500,6.25,0,3,1,1
