index,timestamp_us,dt_us,raw_accel_x,raw_accel_y,raw_accel_z,raw_gyro_x,raw_gyro_y,raw_gyro_z,accel_x_g,accel_y_g,accel_z_g,gyro_x_dps,gyro_y_dps,gyro_z_dps,accel_filt_x_g,accel_filt_y_g,accel_filt_z_g,gyro_filt_x_dps,gyro_filt_y_dps,gyro_filt_z_dps,roll_deg,pitch_deg,yaw_deg,motor_upper_us,motor_lower_us,servo_alpha_us,servo_beta_us,accel_error_deg,fusion_flags,flight_flags,armed,gyro_bias_ready
0,127035383,,-97,2629,114,-319,-241,-54,-0.04736328125,1.28369140625,0.0556640625,-9.725609756097562,-7.347560975609757,-1.6463414634146343,0.267,-0.019,1.018,0.42,0.64,-5.51,0.65,-1.07,1.0,1633,1633,1500,1500,13.67,0,3,1,1
1,127036391,1008,-290,2421,1962,-384,-1,-21,-0.1416015625,1.18212890625,0.9580078125,-11.707317073170733,-0.030487804878048783,-0.6402439024390244,0.073,0.006,1.044,0.49,4.21,-3.59,0.64,-1.07,1.0,1633,1633,1500,1500,3.1,0,3,1,1
2,127037400,1009,-65,1622,2422,-251,201,15,-0.03173828125,0.7919921875,1.1826171875,-7.652439024390245,6.128048780487806,0.4573170731707317,-0.125,0.01,1.004,0.16,5.23,-0.25,0.64,-1.06,1.0,1633,1633,1500,1500,8.31,0,3,1,1
3,127038408,1008,409,1309,1487,-53,283,39,0.19970703125,0.63916015625,0.72607421875,-1.6158536585365855,8.628048780487806,1.1890243902439026,-0.221,-0.023,0.946,-0.29,3.89,2.8,0.64,-1.05,1.0,1633,1633,1500,1500,14.23,0,3,1,1
4,127039416,1008,486,2038,541,67,206,38,0.2373046875,0.9951171875,0.26416015625,2.0426829268292686,6.2804878048780495,1.1585365853658538,-0.227,-0.057,0.954,-0.59,1.77,4.05,0.65,-1.04,1.01,1633,1633,1500,1500,14.73,0,3,1,1
5,127040425,1009,287,2559,-75,80,59,-7,0.14013671875,1.24951171875,-0.03662109375,2.439024390243903,1.7987804878048783,-0.2134146341463415,-0.185,-0.07,1.001,-0.32,0.23,3.38,0.65,-1.03,1.01,1633,1633,1500,1500,12.02,0,3,1,1
6,127041433,1008,4,2216,-1013,63,-94,-63,0.001953125,1.08203125,-0.49462890625,1.9207317073170733,-2.8658536585365857,-1.9207317073170733,-0.078,-0.059,1.013,0.41,-0.61,1.38,0.65,-1.03,1.01,1633,1633,1500,1500,6.06,0,3,1,1
7,127042441,1008,-508,2094,-1036,64,-197,-85,-0.248046875,1.0224609375,-0.505859375,1.9512195121951221,-6.00609756097561,-2.5914634146341466,0.014,-0.01,1.015,1.13,-1.19,-1.0,0.65,-1.03,1.01,1633,1633,1500,1500,0.21,0,3,1,1
8,127043450,1009,-793,2310,219,51,-152,-34,-0.38720703125,1.1279296875,0.10693359375,1.5548780487804879,-4.634146341463415,-1.0365853658536586,-0.004,0.052,1.033,1.09,-1.44,-2.12,0.65,-1.03,1.01,1633,1633,1500,1500,3.79,0,3,1,1
9,127044458,1008,-247,1870,672,90,-73,39,-0.12060546875,0.9130859375,0.328125,2.7439024390243905,-2.225609756097561,1.1890243902439026,-0.055,0.063,1.014,0.32,-2.01,-2.07,0.64,-1.03,1.01,1633,1633,1500,1500,5.95,0,3,1,1
10,127045467,1009,836,1262,-90,217,-106,56,0.408203125,0.6162109375,-0.0439453125,6.615853658536586,-3.231707317073171,1.707317073170732,-0.04,-0.011,0.95,-0.36,-3.68,-2.37,0.64,-1.03,1.0,1633,1633,1500,1500,3.45,0,3,1,1
11,127046475,1008,1102,1748,-1096,298,-136,35,0.5380859375,0.853515625,-0.53515625,9.085365853658537,-4.146341463414634,1.0670731707317074,0.051,-0.095,0.935,-0.6,-5.62,-2.88,0.65,-1.04,1.0,1633,1633,1500,1500,5.55,0,3,1,1
12,127047483,1008,172,2575,-1704,200,-114,-13,0.083984375,1.25732421875,-0.83203125,6.097560975609756,-3.4756097560975614,-0.39634146341463417,0.174,-0.093,0.986,-0.27,-5.91,-2.99,0.65,-1.05,1.0,1633,1633,1500,1500,10.14,0,3,1,1
13,127048492,1009,-718,2464,-1179,-57,-98,-81,-0.3505859375,1.203125,-0.57568359375,-1.7378048780487807,-2.987804878048781,-2.4695121951219514,0.238,-0.022,1.02,0.63,-3.48,-2.9,0.65,-1.06,0.99,1633,1633,1500,1500,12.12,0,3,1,1
14,127049500,1008,-907,2152,48,-279,2,-110,-0.44287109375,1.05078125,0.0234375,-8.506097560975611,0.06097560975609757,-3.353658536585366,0.196,0.05,1.025,1.53,0.39,-1.82,0.65,-1.07,0.99,1633,1633,1500,1500,10.4,0,3,1,1
15,127050508,1008,-815,2209,923,-359,148,-37,-0.39794921875,1.07861328125,0.45068359375,-10.945121951219512,4.51219512195122,-1.128048780487805,0.094,0.106,1.034,1.39,3.79,0.38,0.64,-1.06,0.99,1633,1633,1500,1500,7.69,0,3,1,1
16,127051517,1009,-418,1841,1370,-320,109,74,-0.2041015625,0.89892578125,0.6689453125,-9.756097560975611,3.3231707317073176,2.25609756097561,-0.026,0.121,1.012,0.16,5.65,1.45,0.64,-1.06,0.99,1633,1633,1500,1500,7.92,0,3,1,1
17,127052525,1008,802,1183,1206,-180,-1,116,0.3916015625,0.57763671875,0.5888671875,-5.487804878048781,-0.030487804878048783,3.536585365853659,-0.115,0.04,0.943,-1.07,5.46,1.04,0.64,-1.05,1.0,1633,1633,1500,1500,8.63,0,3,1,1
18,127053533,1008,1734,1491,380,-24,43,101,0.8466796875,0.72802734375,0.185546875,-0.7317073170731708,1.3109756097560976,3.079268292682927,-0.126,-0.1,0.909,-1.75,3.75,1.22,0.64,-1.04,1.0,1633,1633,1500,1500,10.59,0,3,1,1
19,127054542,1009,1042,2684,29,63,97,17,0.5087890625,1.310546875,0.01416015625,1.9207317073170733,2.957317073170732,0.5182926829268293,-0.109,-0.165,0.973,-1.34,1.72,1.88,0.65,-1.03,1.0,1633,1633,1500,1500,11.6,0,3,1,1
20,127055550,1008,-248,3014,182,62,122,-117,-0.12109375,1.4716796875,0.0888671875,1.8902439024390245,3.7195121951219514,-3.5670731707317076,-0.105,-0.119,1.052,0.28,0.38,2.58,0.65,-1.03,1.0,1633,1633,1500,1500,8.93,0,3,1,1
21,127056559,1009,-1108,2246,-14,-5,191,-170,-0.541015625,1.0966796875,-0.0068359375,-0.15243902439024393,5.823170731707317,-5.182926829268293,-0.088,-0.015,1.059,1.91,0.17,3.75,0.65,-1.03,1.0,1633,1633,1500,1500,5.79,0,3,1,1
22,127057566,1007,-1498,1882,-56,-4,166,-99,-0.7314453125,0.9189453125,-0.02734375,-0.12195121951219513,5.060975609756098,-3.0182926829268295,-0.069,0.103,1.036,2.27,0.02,4.28,0.64,-1.02,1.01,1633,1633,1500,1500,7.99,0,3,1,1
23,127058574,1008,-721,1811,-134,125,25,20,-0.35205078125,0.88427734375,-0.0654296875,3.810975609756098,0.7621951219512195,0.6097560975609757,-0.048,0.142,1.012,1.3,-1.39,3.19,0.64,-1.02,1.01,1633,1633,1500,1500,9.44,0,3,1,1
24,127059582,1008,1028,1251,-817,243,-156,120,0.501953125,0.61083984375,-0.39892578125,7.408536585365854,-4.75609756097561,3.658536585365854,0.022,0.04,0.948,-0.36,-3.53,0.61,0.64,-1.03,1.01,1633,1633,1500,1500,3.1,0,3,1,1
25,127060590,1008,1821,1166,-1443,239,-340,137,0.88916015625,0.5693359375,-0.70458984375,7.286585365853659,-10.365853658536587,4.176829268292683,0.13,-0.106,0.888,-1.64,-4.92,-2.96,0.64,-1.04,1.01,1633,1633,1500,1500,9.56,0,3,1,1
26,127061598,1008,908,2261,-1423,115,-359,40,0.443359375,1.10400390625,-0.69482421875,3.50609756097561,-10.945121951219512,1.2195121951219514,0.22,-0.16,0.922,-1.5,-4.58,-5.54,0.65,-1.05,1.0,1633,1633,1500,1500,15.23,0,3,1,1
27,127062605,1007,-530,3211,-398,-101,-152,-92,-0.2587890625,1.56787109375,-0.1943359375,-3.079268292682927,-4.634146341463415,-2.804878048780488,0.216,-0.093,1.025,-0.07,-2.15,-5.15,0.65,-1.05,1.0,1633,1633,1500,1500,11.73,0,3,1,1
28,127063612,1007,-1465,2895,891,-272,144,-151,-0.71533203125,1.41357421875,0.43505859375,-8.292682926829269,4.390243902439025,-4.603658536585367,0.112,0.034,1.086,1.48,1.21,-1.87,0.65,-1.06,1.0,1633,1633,1500,1500,5.46,0,3,1,1
29,127064620,1008,-1583,2086,1173,-258,328,-100,-0.77294921875,1.0185546875,0.57275390625,-7.865853658536586,10.0,-3.048780487804878,0.004,0.151,1.075,2.0,3.3,2.18,0.64,-1.05,1.0,1633,1633,1500,1500,8.72,0,3,1,1
30,127065627,1007,-868,1548,740,-179,218,32,-0.423828125,0.755859375,0.361328125,-5.457317073170732,6.646341463414635,0.9756097560975611,-0.053,0.194,1.025,0.99,3.89,3.76,0.63,-1.05,1.0,1633,1633,1500,1500,12.09,0,3,1,1
31,127066635,1008,606,1090,216,-130,-81,156,0.2958984375,0.5322265625,0.10546875,-3.963414634146342,-2.4695121951219514,4.75609756097561,-0.062,0.116,0.947,-0.93,3.78,1.76,0.63,-1.04,1.01,1633,1633,1500,1500,9.04,0,3,1,1
32,127067643,1008,1973,1156,-86,-95,-266,182,0.96337890625,0.564453125,-0.0419921875,-2.8963414634146343,-8.109756097560977,5.548780487804878,-0.045,-0.054,0.886,-2.48,3.35,-1.45,0.63,-1.03,1.0,1633,1633,1500,1500,4.91,0,3,1,1
33,127068651,1008,1873,2251,18,-73,-190,98,0.91455078125,1.09912109375,0.0087890625,-2.225609756097561,-5.7926829268292686,2.987804878048781,-0.039,-0.19,0.92,-2.66,2.84,-2.81,0.64,-1.03,1.0,1633,1633,1500,1500,11.6,0,3,1,1
34,127069659,1008,443,3212,100,-16,19,-57,0.21630859375,1.568359375,0.048828125,-0.48780487804878053,0.5792682926829269,-1.7378048780487807,-0.041,-0.194,1.022,-1.19,1.92,-1.59,0.65,-1.03,1.0,1633,1633,1500,1500,10.67,0,3,1,1
35,127070666,1007,-1041,3034,208,33,209,-189,-0.50830078125,1.4814453125,0.1015625,1.0060975609756098,6.371951219512195,-5.76219512195122,-0.05,-0.083,1.095,1.12,0.81,1.15,0.65,-1.02,1.0,1633,1633,1500,1500,5.21,0,3,1,1
36,127071675,1009,-1737,2448,340,56,355,-188,-0.84814453125,1.1953125,0.166015625,1.707317073170732,10.823170731707318,-5.731707317073171,-0.069,0.064,1.111,2.65,-0.16,4.47,0.64,-1.02,1.0,1633,1633,1500,1500,6.06,0,3,1,1
37,127072683,1008,-1294,1777,-251,115,291,-59,-0.6318359375,0.86767578125,-0.12255859375,3.50609756097561,8.871951219512196,-1.7987804878048783,-0.038,0.154,1.072,2.36,-1.41,6.03,0.64,-1.02,1.01,1633,1633,1500,1500,9.36,0,3,1,1
38,127073691,1008,229,801,-1200,178,-60,80,0.11181640625,0.39111328125,-0.5859375,5.426829268292684,-1.829268292682927,2.439024390243903,0.06,0.112,0.964,0.75,-2.88,3.49,0.63,-1.03,1.01,1633,1633,1500,1500,7.7,0,3,1,1
39,127074699,1008,1636,698,-1712,157,-417,161,0.798828125,0.3408203125,-0.8359375,4.786585365853659,-12.713414634146343,4.908536585365854,0.183,-0.032,0.865,-1.14,-3.65,-1.84,0.63,-1.04,1.01,1633,1633,1500,1500,11.02,0,3,1,1
40,127075704,1005,1508,1869,-1477,16,-560,146,0.736328125,0.91259765625,-0.72119140625,0.48780487804878053,-17.073170731707318,4.451219512195122,0.268,-0.143,0.873,-2.26,-2.72,-6.84,0.64,-1.05,1.01,1633,1633,1500,1500,18.04,0,3,1,1
41,127076711,1007,126,2832,-111,-151,-402,20,0.0615234375,1.3828125,-0.05419921875,-4.603658536585367,-12.256097560975611,0.6097560975609757,0.234,-0.13,0.953,-1.71,-0.4,-8.57,0.65,-1.05,1.0,1633,1633,1500,1500,14.5,0,3,1,1
42,127077720,1009,-1142,3000,1396,-232,56,-116,-0.5576171875,1.46484375,0.681640625,-7.073170731707318,1.707317073170732,-3.536585365853659,0.089,-0.021,1.035,0.03,1.96,-5.04,0.65,-1.05,0.99,1633,1633,1500,1500,3.91,0,3,1,1
43,127078728,1008,-1528,2636,1780,-203,453,-124,-0.74609375,1.287109375,0.869140625,-6.189024390243903,13.810975609756099,-3.780487804878049,-0.062,0.1,1.074,1.28,3.24,1.34,0.64,-1.05,0.99,1633,1633,1500,1500,7.4,0,3,1,1
44,127079736,1008,-1131,1929,1326,-136,424,-11,-0.55224609375,0.94189453125,0.6474609375,-4.146341463414634,12.926829268292684,-0.3353658536585366,-0.155,0.171,1.053,0.95,3.41,5.3,0.64,-1.04,1.0,1633,1633,1500,1500,13.6,0,3,1,1
45,127080745,1009,112,1226,227,-76,108,110,0.0546875,0.5986328125,0.11083984375,-2.3170731707317076,3.2926829268292686,3.353658536585366,-0.148,0.135,0.981,-0.49,2.91,4.72,0.63,-1.03,1.0,1633,1633,1500,1500,12.79,0,3,1,1
46,127081753,1008,1559,1113,-908,-25,-210,177,0.76123046875,0.54345703125,-0.443359375,-0.7621951219512195,-6.402439024390245,5.396341463414634,-0.054,-0.006,0.912,-2.13,2.06,1.08,0.64,-1.03,1.0,1633,1633,1500,1500,4.46,0,3,1,1
47,127082761,1008,1744,1885,-919,13,-351,147,0.8515625,0.92041015625,-0.44873046875,0.39634146341463417,-10.701219512195124,4.481707317073171,0.025,-0.14,0.913,-2.93,1.1,-2.76,0.64,-1.03,1.0,1633,1633,1500,1500,8.12,0,3,1,1
48,127083769,1008,777,2663,-221,36,-203,13,0.37939453125,1.30029296875,-0.10791015625,1.0975609756097562,-6.189024390243903,0.39634146341463417,0.038,-0.178,0.974,-2.08,0.23,-3.82,0.65,-1.03,1.0,1633,1633,1500,1500,9.79,0,3,1,1
49,127084777,1008,-563,2928,407,3,75,-138,-0.27490234375,1.4296875,0.19873046875,0.09146341463414635,2.2865853658536586,-4.207317073170732,0.0,-0.106,1.046,0.0,0.0,-1.69,0.65,-1.03,1.0,1633,1633,1500,1500,5.25,0,3,1,1
50,127085785,1008,-1535,2822,647,9,303,-196,-0.74951171875,1.3779296875,0.31591796875,0.27439024390243905,9.237804878048781,-5.975609756097562,-0.049,0.029,1.099,1.99,-0.22,2.04,0.65,-1.02,1.0,1633,1633,1500,1500,4.21,0,3,1,1
51,127086794,1009,-1365,2100,87,129,405,-108,-0.66650390625,1.025390625,0.04248046875,3.932926829268293,12.347560975609758,-3.2926829268292686,-0.048,0.13,1.087,2.42,-1.59,5.58,0.64,-1.02,1.0,1633,1633,1500,1500,8.29,0,3,1,1
52,127087802,1008,-441,1117,-847,205,208,41,-0.21533203125,0.54541015625,-0.41357421875,6.250000000000001,6.341463414634147,1.25,0.024,0.143,1.001,1.18,-3.28,5.92,0.64,-1.03,1.01,1633,1633,1500,1500,8.83,0,3,1,1
53,127088811,1009,736,817,-1490,127,-208,136,0.359375,0.39892578125,-0.7275390625,3.8719512195121957,-6.341463414634147,4.146341463414634,0.136,0.064,0.906,-0.6,-3.61,1.9,0.63,-1.03,1.01,1633,1633,1500,1500,8.84,0,3,1,1
54,127089819,1008,1527,1514,-1510,-45,-474,156,0.74560546875,0.7392578125,-0.7373046875,-1.3719512195121952,-14.451219512195124,4.75609756097561,0.231,-0.064,0.879,-1.99,-2.07,-3.47,0.64,-1.04,1.01,1633,1633,1500,1500,14.12,0,3,1,1
55,127090827,1008,1030,2394,-558,-176,-393,102,0.5029296875,1.1689453125,-0.2724609375,-5.365853658536586,-11.981707317073171,3.1097560975609757,0.238,-0.133,0.925,-2.37,0.27,-6.23,0.64,-1.05,1.0,1633,1633,1500,1500,15.22,0,3,1,1
56,127091836,1009,-340,2824,1015,-211,-27,-25,-0.166015625,1.37890625,0.49560546875,-6.432926829268293,-0.8231707317073171,-0.7621951219512195,0.121,-0.086,0.997,-1.33,2.2,-4.33,0.65,-1.05,1.0,1633,1633,1500,1500,7.28,0,3,1,1
57,127092844,1008,-1210,2854,2026,-186,415,-123,-0.5908203125,1.3935546875,0.9892578125,-5.670731707317073,12.652439024390246,-3.7500000000000004,-0.054,0.021,1.06,0.35,3.23,1.43,0.65,-1.05,1.0,1633,1633,1500,1500,4.38,0,3,1,1
58,127093852,1008,-1069,2305,1530,-107,610,-79,-0.52197265625,1.12548828125,0.7470703125,-3.26219512195122,18.597560975609756,-2.408536585365854,-0.164,0.1,1.07,1.03,3.11,7.26,0.64,-1.04,1.01,1633,1633,1500,1500,11.44,0,3,1,1
59,127094861,1009,-299,1461,121,16,379,37,-0.14599609375,0.71337890625,0.05908203125,0.48780487804878053,11.55487804878049,1.128048780487805,-0.147,0.107,1.013,0.3,1.77,8.78,0.64,-1.03,1.02,1633,1633,1500,1500,11.45,0,3,1,1
60,127095869,1008,875,1112,-1050,103,-33,116,0.42724609375,0.54296875,-0.5126953125,3.1402439024390247,-1.0060975609756098,3.536585365853659,-0.042,0.022,0.939,-0.98,0.0,5.59,0.64,-1.03,1.02,1633,1633,1500,1500,4.18,0,3,1,1
61,127096877,1008,1476,1677,-1589,100,-329,131,0.720703125,0.81884765625,-0.77587890625,3.048780487804878,-10.03048780487805,3.9939024390243905,0.086,-0.095,0.92,-1.99,-1.15,0.45,0.64,-1.03,1.02,1633,1633,1500,1500,6.81,0,3,1,1
62,127097886,1009,767,2595,-1093,46,-398,52,0.37451171875,1.26708984375,-0.53369140625,1.402439024390244,-12.134146341463415,1.5853658536585367,0.157,-0.139,0.975,-1.86,-1.36,-3.66,0.65,-1.04,1.02,1633,1633,1500,1500,10.98,0,3,1,1
63,127098894,1008,-245,2872,162,-45,-205,-73,-0.11962890625,1.40234375,0.0791015625,-1.3719512195121952,-6.250000000000001,-2.225609756097561,0.12,-0.098,1.042,-0.5,-0.58,-4.44,0.65,-1.04,1.01,1633,1633,1500,1500,7.25,0,3,1,1
64,127099902,1008,-905,2666,1278,-116,89,-150,-0.44189453125,1.3017578125,0.6240234375,-3.536585365853659,2.713414634146342,-4.573170731707317,0.002,-0.012,1.083,1.18,0.66,-1.96,0.65,-1.04,1.01,1633,1633,1500,1500,0.93,0,3,1,1
65,127100911,1009,-1160,2318,1668,-33,320,-134,-0.56640625,1.1318359375,0.814453125,-1.0060975609756098,9.756097560975611,-4.085365853658537,-0.127,0.079,1.091,2.14,0.64,2.04,0.65,-1.04,1.01,1633,1633,1500,1500,9.06,0,3,1,1
66,127101919,1008,-653,1592,560,161,362,-30,-0.31884765625,0.77734375,0.2734375,4.908536585365854,11.036585365853659,-0.9146341463414634,-0.15,0.117,1.041,1.72,-1.34,5.13,0.64,-1.03,1.02,1633,1633,1500,1500,11.61,0,3,1,1
67,127102927,1008,363,949,-1527,255,68,82,0.17724609375,0.46337890625,-0.74560546875,7.77439024390244,2.073170731707317,2.5,-0.008,0.07,0.95,0.3,-3.62,4.2,0.64,-1.04,1.02,1633,1633,1500,1500,5.13,0,3,1,1
68,127103935,1008,1087,1243,-2420,154,-336,109,0.53076171875,0.60693359375,-1.181640625,4.695121951219512,-10.24390243902439,3.3231707317073176,0.18,-0.024,0.895,-0.91,-4.11,-0.54,0.64,-1.04,1.02,1633,1633,1500,1500,10.39,0,3,1,1
69,127104944,1009,1044,2327,-1320,-71,-448,65,0.509765625,1.13623046875,-0.64453125,-2.164634146341464,-13.658536585365855,1.981707317073171,0.253,-0.101,0.933,-1.27,-2.14,-4.84,0.64,-1.05,1.02,1633,1633,1500,1500,15.13,0,3,1,1
70,127105952,1008,267,2994,341,-265,-237,-5,0.13037109375,1.4619140625,0.16650390625,-8.079268292682928,-7.225609756097562,-0.15243902439024393,0.187,-0.106,1.017,-0.8,1.14,-5.55,0.65,-1.06,1.01,1633,1633,1500,1500,10.72,0,3,1,1
71,127106960,1008,-546,2701,1549,-275,85,-90,-0.2666015625,1.31884765625,0.75634765625,-8.384146341463415,2.5914634146341466,-2.7439024390243905,0.037,-0.047,1.065,0.37,3.43,-2.74,0.65,-1.05,1.01,1633,1633,1500,1500,2.11,0,3,1,1
72,127107969,1009,-709,2033,2135,-145,347,-114,-0.34619140625,0.99267578125,1.04248046875,-4.420731707317073,10.579268292682928,-3.4756097560975614,-0.133,0.015,1.053,1.4,3.63,1.8,0.65,-1.05,1.01,1633,1633,1500,1500,8.42,0,3,1,1
73,127108977,1008,-401,1475,1260,32,408,-31,-0.19580078125,0.72021484375,0.615234375,0.9756097560975611,12.439024390243903,-0.9451219512195123,-0.21,0.043,1.0,1.24,1.95,5.44,0.64,-1.04,1.02,1633,1633,1500,1500,13.28,0,3,1,1
74,127109986,1009,204,1288,-775,203,213,67,0.099609375,0.62890625,-0.37841796875,6.189024390243903,6.4939024390243905,2.0426829268292686,-0.116,0.021,0.941,0.13,-0.89,5.88,0.64,-1.04,1.02,1633,1633,1500,1500,8.33,0,3,1,1
75,127110994,1008,813,1609,-2288,242,-105,91,0.39697265625,0.78564453125,-1.1171875,7.378048780487806,-3.2012195121951224,2.774390243902439,0.078,-0.045,0.917,-0.84,-3.19,2.93,0.64,-1.04,1.03,1633,1633,1500,1500,4.44,0,3,1,1
76,127112002,1008,691,2254,-2270,123,-375,36,0.33740234375,1.1005859375,-1.1083984375,3.7500000000000004,-11.432926829268293,1.0975609756097562,0.242,-0.091,0.946,-0.93,-3.51,-1.78,0.65,-1.05,1.02,1633,1633,1500,1500,14.11,0,3,1,1
77,127113008,1006,29,2793,-729,-85,-459,-31,0.01416015625,1.36376953125,-0.35595703125,-2.5914634146341466,-13.993902439024392,-0.9451219512195123,0.26,-0.079,1.012,-0.31,-1.6,-5.78,0.65,-1.06,1.02,1633,1633,1500,1500,13.86,0,3,1,1
78,127114017,1009,-465,2700,1138,-228,-265,-50,-0.22705078125,1.318359375,0.5556640625,-6.951219512195123,-8.079268292682928,-1.524390243902439,0.13,-0.03,1.06,0.29,1.12,-6.46,0.65,-1.06,1.01,1633,1633,1500,1500,6.05,0,3,1,1
79,127115025,1008,-633,1941,2386,-181,44,-45,-0.30908203125,0.94775390625,1.1650390625,-5.5182926829268295,1.3414634146341464,-1.3719512195121952,-0.074,0.023,1.043,0.64,2.46,-3.76,0.65,-1.06,1.01,1633,1633,1500,1500,5.51,0,3,1,1
80,127116033,1008,-308,1286,2536,-8,224,-17,-0.150390625,0.6279296875,1.23828125,-0.24390243902439027,6.829268292682928,-0.5182926829268293,-0.259,0.043,0.977,0.59,1.58,-0.13,0.65,-1.05,1.01,1633,1633,1500,1500,16.22,0,3,1,1
81,127117041,1008,323,1467,819,159,215,54,0.15771484375,0.71630859375,0.39990234375,4.847560975609756,6.5548780487804885,1.6463414634146343,-0.281,0.011,0.935,-0.16,-0.69,2.19,0.65,-1.04,1.01,1633,1633,1500,1500,17.85,0,3,1,1
82,127118050,1009,516,2003,-1761,245,12,82,0.251953125,0.97802734375,-0.85986328125,7.469512195121952,0.3658536585365854,2.5,-0.1,-0.03,0.942,-0.94,-3.09,1.66,0.65,-1.04,1.01,1633,1633,1500,1500,7.22,0,3,1,1
83,127119058,1008,329,2233,-2693,210,-243,9,0.16064453125,1.09033203125,-1.31494140625,6.402439024390245,-7.408536585365854,0.27439024390243905,0.123,-0.05,0.965,-0.73,-4.33,-1.28,0.65,-1.04,1.01,1633,1633,1500,1500,6.69,0,3,1,1
84,127120066,1008,188,2445,-1394,-6,-323,-52,0.091796875,1.19384765625,-0.6806640625,-0.1829268292682927,-9.847560975609756,-1.5853658536585367,0.212,-0.057,1.002,0.03,-2.95,-4.05,0.65,-1.05,1.01,1633,1633,1500,1500,11.21,0,3,1,1
85,127121074,1008,-229,2518,312,-236,-233,-28,-0.11181640625,1.2294921875,0.15234375,-7.195121951219513,-7.103658536585367,-0.853658536585366,0.154,-0.03,1.038,0.3,0.3,-4.99,0.65,-1.06,1.0,1633,1633,1500,1500,7.48,0,3,1,1
86,127122083,1009,-553,2023,1302,-214,-86,-9,-0.27001953125,0.98779296875,0.6357421875,-6.52439024390244,-2.6219512195121952,-0.27439024390243905,0.029,0.017,1.03,0.28,2.25,-4.11,0.65,-1.05,1.0,1633,1633,1500,1500,1.7,0,3,1,1
87,127123091,1008,22,1475,1560,-7,56,1,0.0107421875,0.72021484375,0.76171875,-0.2134146341463415,1.707317073170732,0.030487804878048783,-0.096,0.012,0.981,0.17,1.44,-2.07,0.65,-1.05,0.99,1633,1633,1500,1500,6.81,0,3,1,1
88,127124099,1008,615,1625,620,174,114,35,0.30029296875,0.79345703125,0.302734375,5.3048780487804885,3.4756097560975614,1.0670731707317074,-0.129,-0.036,0.951,-0.24,-0.94,-0.13,0.65,-1.05,0.99,1633,1633,1500,1500,8.91,0,3,1,1
89,127125107,1008,432,2106,-1167,249,83,26,0.2109375,1.0283203125,-0.56982421875,7.591463414634147,2.530487804878049,0.7926829268292683,-0.018,-0.064,0.963,-0.43,-3.3,0.84,0.65,-1.05,0.99,1633,1633,1500,1500,3.82,0,3,1,1
90,127126116,1009,-4,2303,-2140,147,-9,-33,-0.001953125,1.12451171875,-1.044921875,4.481707317073171,-0.27439024390243905,-1.0060975609756098,0.15,-0.054,0.989,0.03,-3.82,0.55,0.65,-1.06,1.0,1633,1633,1500,1500,7.97,0,3,1,1
91,127127123,1007,-417,2434,-1277,-99,-143,-72,-0.20361328125,1.1884765625,-0.62353515625,-3.0182926829268295,-4.359756097560976,-2.1951219512195124,0.225,-0.013,1.02,0.75,-1.67,-1.0,0.65,-1.06,0.99,1633,1633,1500,1500,11.4,0,3,1,1
92,127128131,1008,-669,2375,336,-270,-172,-37,-0.32666015625,1.15966796875,0.1640625,-8.231707317073171,-5.2439024390243905,-1.128048780487805,0.163,0.04,1.042,0.87,1.51,-2.33,0.65,-1.07,0.99,1633,1633,1500,1500,8.36,0,3,1,1
93,127129139,1008,-388,1799,1265,-236,-86,34,-0.189453125,0.87841796875,0.61767578125,-7.195121951219513,-2.6219512195121952,1.0365853658536586,0.039,0.064,1.016,0.22,3.27,-2.34,0.65,-1.06,0.99,1633,1633,1500,1500,4.43,0,3,1,1
94,127130148,1009,515,1332,1553,-62,-20,59,0.25146484375,0.650390625,0.75830078125,-1.8902439024390245,-0.6097560975609757,1.7987804878048783,-0.086,0.014,0.958,-0.45,2.68,-1.67,0.65,-1.06,0.99,1633,1633,1500,1500,6.42,0,3,1,1
95,127131156,1008,1150,1746,972,105,64,49,0.5615234375,0.8525390625,0.474609375,3.2012195121951224,1.9512195121951221,1.4939024390243905,-0.148,-0.077,0.941,-0.81,0.58,-0.37,0.65,-1.05,0.99,1633,1633,1500,1500,10.76,0,3,1,1
96,127132164,1008,645,2515,-308,171,152,11,0.31494140625,1.22802734375,-0.150390625,5.213414634146342,4.634146341463415,0.3353658536585366,-0.1,-0.114,0.987,-0.65,-1.48,1.38,0.65,-1.05,0.99,1633,1633,1500,1500,9.09,0,3,1,1
97,127133173,1009,-347,2552,-1079,124,94,-63,-0.16943359375,1.24609375,-0.52685546875,3.780487804878049,2.8658536585365857,-1.9207317073170733,-0.001,-0.069,1.028,0.19,-2.38,1.96,0.66,-1.05,0.99,1633,1633,1500,1500,3.41,0,3,1,1
98,127134181,1008,-877,2214,-830,3,-25,-123,-0.42822265625,1.0810546875,-0.4052734375,0.09146341463414635,-0.7621951219512195,-3.7500000000000004,0.063,0.009,1.036,1.37,-1.75,1.14,0.65,-1.05,0.99,1633,1633,1500,1500,2.69,0,3,1,1
99,127135190,1009,-907,2217,85,-126,-32,-83,-0.44287109375,1.08251953125,0.04150390625,-3.8414634146341466,-0.9756097560975611,-2.530487804878049,0.046,0.078,1.043,1.75,-0.01,0.52,0.65,-1.06,0.99,1633,1633,1500,1500,5.15,0,3,1,1
100,127136198,1008,-514,1949,691,-168,-22,25,-0.2509765625,0.95166015625,0.33740234375,-5.121951219512195,-0.6707317073170732,0.7621951219512195,-0.014,0.105,1.029,0.9,1.57,0.2,0.64,-1.05,0.99,1633,1633,1500,1500,6.77,0,3,1,1
101,127137206,1008,590,1244,889,-76,-57,83,0.2880859375,0.607421875,0.43408203125,-2.3170731707317076,-1.7378048780487807,2.530487804878049,-0.08,0.043,0.962,-0.24,1.69,-0.35,0.64,-1.05,0.99,1633,1633,1500,1500,6.68,0,3,1,1
102,127138214,1008,1497,1298,785,33,-35,85,0.73095703125,0.6337890625,0.38330078125,1.0060975609756098,-1.0670731707317074,2.5914634146341466,-0.128,-0.079,0.91,-1.04,0.65,-0.5,0.65,-1.04,0.99,1633,1633,1500,1500,10.07,0,3,1,1
103,127139222,1008,887,2375,13,90,1,33,0.43310546875,1.15966796875,0.00634765625,2.7439024390243905,0.030487804878048783,1.0060975609756098,-0.109,-0.135,0.949,-1.03,-0.61,-0.23,0.65,-1.04,0.99,1633,1633,1500,1500,10.63,0,3,1,1
104,127140231,1009,-370,3026,-590,102,23,-82,-0.1806640625,1.4775390625,-0.2880859375,3.1097560975609757,0.701219512195122,-2.5,-0.046,-0.085,1.033,0.13,-1.58,0.16,0.65,-1.04,0.99,1633,1633,1500,1500,5.44,0,3,1,1
105,127141239,1008,-1066,2573,-636,42,113,-146,-0.5205078125,1.25634765625,-0.310546875,1.2804878048780488,3.4451219512195124,-4.451219512195122,0.01,0.01,1.068,1.57,-1.61,1.34,0.65,-1.04,0.99,1633,1633,1500,1500,1.32,0,3,1,1
106,127142248,1009,-1301,1998,-409,-52,157,-107,-0.63525390625,0.9755859375,-0.19970703125,-1.5853658536585367,4.786585365853659,-3.26219512195122,0.04,0.109,1.054,2.13,-0.67,2.58,0.65,-1.04,1.0,1633,1633,1500,1500,6.69,0,3,1,1
107,127143256,1008,-824,1810,0,-110,73,-9,-0.40234375,0.8837890625,0.0,-3.353658536585366,2.225609756097561,-0.27439024390243905,0.033,0.156,1.027,1.5,0.54,2.55,0.64,-1.04,1.0,1633,1633,1500,1500,9.33,0,3,1,1
108,127144264,1008,674,1462,-45,-66,-50,94,0.3291015625,0.7138671875,-0.02197265625,-2.0121951219512195,-1.524390243902439,2.8658536585365857,0.031,0.079,0.977,0.03,0.9,1.27,0.64,-1.04,1.0,1633,1633,1500,1500,5.33,0,3,1,1
109,127145273,1009,1881,1124,-644,54,-185,137,0.91845703125,0.548828125,-0.314453125,1.6463414634146343,-5.640243902439025,4.176829268292683,0.076,-0.079,0.909,-1.38,-0.08,-0.95,0.64,-1.04,1.0,1633,1633,1500,1500,5.73,0,3,1,1
110,127146280,1007,1438,1746,-1060,135,-239,72,0.7021484375,0.8525390625,-0.517578125,4.115853658536586,-7.286585365853659,2.1951219512195124,0.146,-0.177,0.9,-1.66,-1.56,-2.98,0.65,-1.05,1.0,1633,1633,1500,1500,13.21,0,3,1,1
111,127147289,1009,-25,2946,-594,62,-121,-60,-0.01220703125,1.4384765625,-0.2900390625,1.8902439024390245,-3.689024390243903,-1.829268292682927,0.169,-0.147,0.985,-0.5,-1.8,-3.13,0.65,-1.06,0.99,1633,1633,1500,1500,11.63,0,3,1,1
112,127148297,1008,-1274,3199,395,-115,82,-153,-0.6220703125,1.56201171875,0.19287109375,-3.50609756097561,2.5,-4.664634146341464,0.111,-0.025,1.077,1.22,-0.16,-1.16,0.65,-1.06,0.99,1633,1633,1500,1500,4.92,0,3,1,1
113,127149305,1008,-1663,2345,804,-166,254,-139,-0.81201171875,1.14501953125,0.392578125,-5.060975609756098,7.743902439024391,-4.237804878048781,0.031,0.107,1.087,2.22,1.45,1.9,0.65,-1.06,0.99,1633,1633,1500,1500,6.31,0,3,1,1
114,127150314,1009,-1055,1468,652,-104,264,-25,-0.51513671875,0.716796875,0.318359375,-3.1707317073170733,8.048780487804878,-0.7621951219512195,-0.023,0.171,1.029,1.72,1.89,4.04,0.64,-1.05,1.0,1633,1633,1500,1500,10.41,0,3,1,1
115,127151322,1008,284,1107,304,-56,54,109,0.138671875,0.54052734375,0.1484375,-1.707317073170732,1.6463414634146343,3.3231707317073176,-0.043,0.122,0.951,0.03,1.7,3.33,0.63,-1.05,1.0,1633,1633,1500,1500,8.78,0,3,1,1
116,127152331,1009,1649,1264,-422,16,-187,161,0.80517578125,0.6171875,-0.2060546875,0.48780487804878053,-5.701219512195123,4.908536585365854,-0.003,-0.024,0.898,-1.62,0.83,0.39,0.64,-1.05,1.0,1633,1633,1500,1500,1.59,0,3,1,1
117,127153339,1008,1850,1945,-928,70,-219,109,0.9033203125,0.94970703125,-0.453125,2.1341463414634148,-6.676829268292684,3.3231707317073176,0.068,-0.163,0.906,-2.2,-0.28,-1.88,0.64,-1.05,1.0,1633,1633,1500,1500,10.12,0,3,1,1
118,127154347,1008,523,2808,-587,38,-111,-11,0.25537109375,1.37109375,-0.28662109375,1.1585365853658538,-3.3841463414634148,-0.3353658536585366,0.103,-0.178,0.98,-1.36,-0.71,-2.29,0.65,-1.05,1.0,1633,1633,1500,1500,10.8,0,3,1,1
119,127155356,1009,-1095,3115,292,-59,16,-148,-0.53466796875,1.52099609375,0.142578125,-1.7987804878048783,0.48780487804878053,-4.51219512195122,0.064,-0.065,1.066,0.59,0.0,-1.27,0.65,-1.06,1.0,1633,1633,1500,1500,3.71,0,3,1,1
120,127156363,1007,-1732,2684,1103,-148,196,-182,-0.845703125,1.310546875,0.53857421875,-4.51219512195122,5.975609756097562,-5.548780487804878,-0.031,0.079,1.104,2.24,1.37,1.23,0.65,-1.05,1.0,1633,1633,1500,1500,5.46,0,3,1,1
121,127157371,1008,-1371,1928,1209,-146,253,-67,-0.66943359375,0.94140625,0.59033203125,-4.451219512195122,7.713414634146342,-2.0426829268292686,-0.12,0.172,1.078,2.17,2.27,3.48,0.64,-1.05,1.0,1633,1633,1500,1500,12.19,0,3,1,1
122,127158380,1009,-125,1047,600,-57,77,74,-0.06103515625,0.51123046875,0.29296875,-1.7378048780487807,2.347560975609756,2.25609756097561,-0.147,0.155,0.988,0.68,1.96,3.19,0.63,-1.04,1.0,1633,1633,1500,1500,13.41,0,3,1,1
123,127159388,1008,1571,754,-281,43,-146,158,0.76708984375,0.3681640625,-0.13720703125,1.3109756097560976,-4.451219512195122,4.817073170731708,-0.102,0.008,0.89,-1.16,0.73,0.72,0.63,-1.04,1.0,1633,1633,1500,1500,7.69,0,3,1,1
124,127160396,1008,1939,1698,-955,79,-287,158,0.94677734375,0.8291015625,-0.46630859375,2.408536585365854,-8.75,4.817073170731708,-0.012,-0.142,0.88,-2.39,-0.44,-2.35,0.64,-1.03,1.0,1633,1633,1500,1500,8.76,0,3,1,1
125,127161404,1008,566,2827,-796,60,-243,35,0.2763671875,1.38037109375,-0.388671875,1.829268292682927,-7.408536585365854,1.0670731707317074,0.051,-0.163,0.959,-1.95,-1.04,-3.96,0.65,-1.04,1.0,1633,1633,1500,1500,9.26,0,3,1,1
126,127162413,1009,-874,3097,22,-5,4,-128,-0.4267578125,1.51220703125,0.0107421875,-0.15243902439024393,0.12195121951219513,-3.9024390243902443,0.041,-0.07,1.047,0.0,-0.77,-2.5,0.65,-1.04,1.0,1633,1633,1500,1500,3.41,0,3,1,1
127,127163419,1006,-1473,2661,585,-70,271,-177,-0.71923828125,1.29931640625,0.28564453125,-2.1341463414634148,8.26219512195122,-5.396341463414634,-0.01,0.054,1.087,1.79,0.06,1.18,0.65,-1.04,1.0,1633,1633,1500,1500,3.88,0,3,1,1
128,127164428,1009,-1320,1907,356,-13,357,-85,-0.64453125,0.93115234375,0.173828125,-0.39634146341463417,10.884146341463415,-2.5914634146341466,-0.036,0.148,1.062,2.05,0.04,4.51,0.64,-1.04,1.0,1633,1633,1500,1500,9.11,0,3,1,1
129,127165436,1008,-327,1225,-522,102,197,56,-0.15966796875,0.59814453125,-0.2548828125,3.1097560975609757,6.00609756097561,1.707317073170732,0.009,0.15,0.989,0.78,-1.14,5.1,0.63,-1.04,1.01,1633,1633,1500,1500,9.29,0,3,1,1
130,127166444,1008,1117,1042,-1492,139,-134,162,0.54541015625,0.5087890625,-0.728515625,4.237804878048781,-4.085365853658537,4.939024390243903,0.123,0.039,0.912,-1.13,-2.3,2.11,0.63,-1.04,1.01,1633,1633,1500,1500,7.38,0,3,1,1
131,127167453,1009,1735,1553,-1764,80,-426,176,0.84716796875,0.75830078125,-0.861328125,2.439024390243903,-12.987804878048781,5.365853658536586,0.24,-0.1,0.888,-2.55,-2.48,-2.84,0.64,-1.05,1.01,1633,1633,1500,1500,15.17,0,3,1,1
132,127168461,1008,1071,2248,-934,-51,-396,80,0.52294921875,1.09765625,-0.4560546875,-1.5548780487804879,-12.073170731707318,2.439024390243903,0.274,-0.167,0.921,-2.52,-1.26,-5.84,0.65,-1.06,1.0,1633,1633,1500,1500,18.04,0,3,1,1
133,127169469,1008,-324,2763,410,-190,-81,-63,-0.158203125,1.34912109375,0.2001953125,-5.7926829268292686,-2.4695121951219514,-1.9207317073170733,0.199,-0.116,0.989,-1.04,0.96,-4.63,0.65,-1.06,1.0,1633,1633,1500,1500,11.89,0,3,1,1
134,127170478,1009,-1480,3011,1634,-229,236,-155,-0.72265625,1.47021484375,0.7978515625,-6.981707317073171,7.195121951219513,-4.725609756097561,0.041,0.016,1.065,0.87,2.84,-0.58,0.65,-1.06,0.99,1633,1633,1500,1500,1.94,0,3,1,1
135,127171486,1008,-1484,2509,1941,-148,415,-107,-0.724609375,1.22509765625,0.94775390625,-4.51219512195122,12.652439024390246,-3.26219512195122,-0.115,0.129,1.09,1.66,3.27,3.92,0.64,-1.06,1.0,1633,1633,1500,1500,10.23,0,3,1,1
136,127172495,1009,-603,1477,735,-28,307,35,-0.29443359375,0.72119140625,0.35888671875,-0.853658536585366,9.359756097560977,1.0670731707317074,-0.154,0.155,1.032,0.74,2.33,5.83,0.64,-1.05,1.0,1633,1633,1500,1500,13.19,0,3,1,1
137,127173503,1008,690,952,-609,51,-49,126,0.3369140625,0.46484375,-0.29736328125,1.5548780487804879,-1.4939024390243905,3.8414634146341466,-0.082,0.077,0.942,-0.79,0.89,3.46,0.63,-1.04,1.01,1633,1633,1500,1500,8.05,0,3,1,1
138,127174511,1008,1705,1503,-952,44,-310,139,0.83251953125,0.73388671875,-0.46484375,1.3414634146341464,-9.451219512195122,4.237804878048781,0.004,-0.066,0.909,-1.95,0.01,-0.76,0.64,-1.04,1.01,1633,1633,1500,1500,3.65,0,3,1,1
139,127175520,1009,1346,2408,-795,-4,-332,77,0.6572265625,1.17578125,-0.38818359375,-0.12195121951219513,-10.121951219512196,2.347560975609756,0.065,-0.16,0.951,-2.09,-0.07,-3.8,0.65,-1.05,1.0,1633,1633,1500,1500,9.36,0,3,1,1
140,127176528,1008,-55,2801,-2,-43,-186,-63,-0.02685546875,1.36767578125,-0.0009765625,-1.3109756097560976,-5.670731707317073,-1.9207317073170733,0.055,-0.13,1.017,-0.75,0.25,-4.34,0.65,-1.05,1.0,1633,1633,1500,1500,6.97,0,3,1,1
141,127177536,1008,-1100,2855,1121,-54,87,-177,-0.537109375,1.39404296875,0.54736328125,-1.6463414634146343,2.6524390243902443,-5.396341463414634,-0.04,-0.024,1.077,1.29,0.58,-1.91,0.65,-1.04,1.0,1633,1633,1500,1500,3.27,0,3,1,1
142,127178545,1009,-1279,2492,1080,31,342,-144,-0.62451171875,1.216796875,0.52734375,0.9451219512195123,10.426829268292684,-4.390243902439025,-0.117,0.078,1.099,2.32,-0.05,2.29,0.64,-1.04,1.0,1633,1633,1500,1500,8.56,0,3,1,1
143,127179553,1008,-893,1621,-94,189,306,-16,-0.43603515625,0.79150390625,-0.0458984375,5.76219512195122,9.329268292682928,-0.48780487804878053,-0.091,0.134,1.05,1.7,-2.09,4.73,0.64,-1.04,1.0,1633,1633,1500,1500,9.97,0,3,1,1
144,127180561,1008,230,942,-1555,265,-42,82,0.1123046875,0.4599609375,-0.75927734375,8.079268292682928,-1.2804878048780488,2.5,0.043,0.095,0.956,0.28,-4.23,2.81,0.63,-1.05,1.01,1633,1633,1500,1500,6.53,0,3,1,1
145,127181570,1009,1420,1177,-2425,147,-428,128,0.693359375,0.57470703125,-1.18408203125,4.481707317073171,-13.04878048780488,3.9024390243902443,0.224,-0.029,0.896,-1.11,-4.44,-2.4,0.64,-1.06,1.0,1633,1633,1500,1500,13.05,0,3,1,1
146,127182578,1008,1253,2217,-1434,-89,-578,106,0.61181640625,1.08251953125,-0.7001953125,-2.713414634146342,-17.621951219512198,3.231707317073171,0.299,-0.121,0.925,-1.83,-2.18,-7.4,0.64,-1.07,1.0,1633,1633,1500,1500,18.04,0,3,1,1
147,127183587,1009,223,2833,404,-250,-329,11,0.10888671875,1.38330078125,0.197265625,-7.621951219512196,-10.03048780487805,0.3353658536585366,0.22,-0.119,0.998,-1.33,0.96,-8.19,0.65,-1.07,0.99,1633,1633,1500,1500,12.88,0,3,1,1
148,127184595,1008,-667,2622,1554,-248,126,-91,-0.32568359375,1.2802734375,0.7587890625,-7.560975609756098,3.8414634146341466,-2.774390243902439,0.065,-0.049,1.043,0.02,3.03,-4.08,0.65,-1.07,0.98,1633,1633,1500,1500,3.24,0,3,1,1
149,127185603,1008,-1153,2217,2311,-143,438,-112,-0.56298828125,1.08251953125,1.12841796875,-4.359756097560976,13.353658536585368,-3.414634146341464,-0.123,0.047,1.049,1.15,3.34,1.83,0.64,-1.06,0.99,1633,1633,1500,1500,8.46,0,3,1,1
150,127186612,1009,-759,1674,1783,-34,509,-21,-0.37060546875,0.8173828125,0.87060546875,-1.0365853658536586,15.51829268292683,-0.6402439024390244,-0.242,0.099,1.012,0.97,2.44,6.5,0.64,-1.05,0.99,1633,1633,1500,1500,15.74,0,3,1,1
151,127187620,1008,345,1212,-337,63,287,105,0.16845703125,0.591796875,-0.16455078125,1.9207317073170733,8.75,3.2012195121951224,-0.177,0.056,0.945,-0.42,0.85,7.33,0.64,-1.05,1.0,1633,1633,1500,1500,12.37,0,3,1,1
152,127188627,1007,1175,1439,-1867,146,-103,145,0.57373046875,0.70263671875,-0.91162109375,4.451219512195122,-3.1402439024390247,4.420731707317073,-0.005,-0.043,0.907,-1.77,-1.05,3.92,0.64,-1.05,1.0,1633,1633,1500,1500,2.49,0,3,1,1
153,127189636,1009,1125,2234,-1878,150,-317,91,0.54931640625,1.0908203125,-0.9169921875,4.573170731707317,-9.664634146341465,2.774390243902439,0.141,-0.123,0.936,-2.11,-2.36,-0.53,0.65,-1.05,1.0,1633,1633,1500,1500,10.12,0,3,1,1
154,127190644,1008,248,2815,-818,6,-287,8,0.12109375,1.37451171875,-0.3994140625,0.1829268292682927,-8.75,0.24390243902439027,0.182,-0.123,1.005,-1.49,-1.76,-3.19,0.65,-1.06,1.0,1633,1633,1500,1500,11.1,0,3,1,1
155,127191651,1007,-796,2853,804,-148,-108,-83,-0.388671875,1.39306640625,0.392578125,-4.51219512195122,-3.2926829268292686,-2.530487804878049,0.091,-0.041,1.067,-0.15,0.2,-3.14,0.65,-1.06,1.0,1633,1633,1500,1500,4.13,0,3,1,1
156,127192659,1008,-1042,2399,1733,-100,182,-133,-0.5087890625,1.17138671875,0.84619140625,-3.048780487804878,5.548780487804878,-4.0548780487804885,-0.057,0.045,1.083,1.24,1.02,-0.14,0.65,-1.06,1.0,1633,1633,1500,1500,5.12,0,3,1,1
157,127193668,1009,-586,1568,1285,104,365,-60,-0.2861328125,0.765625,0.62744140625,3.1707317073170733,11.128048780487806,-1.829268292682927,-0.147,0.083,1.033,1.43,-0.51,3.71,0.65,-1.05,1.0,1633,1633,1500,1500,10.59,0,3,1,1
158,127194676,1008,1,1031,-150,260,228,63,0.00048828125,0.50341796875,-0.0732421875,7.926829268292684,6.951219512195123,1.9207317073170733,-0.112,0.07,0.949,0.3,-3.12,4.88,0.64,-1.05,1.01,1633,1633,1500,1500,9.22,0,3,1,1
159,127195684,1008,709,1258,-2052,241,-72,115,0.34619140625,0.6142578125,-1.001953125,7.347560975609757,-2.1951219512195124,3.50609756097561,0.063,0.004,0.896,-0.97,-4.66,2.6,0.64,-1.06,1.01,1633,1633,1500,1500,3.15,0,3,1,1
160,127196692,1008,904,2131,-2614,72,-292,79,0.44140625,1.04052734375,-1.2763671875,2.1951219512195124,-8.902439024390244,2.408536585365854,0.256,-0.066,0.919,-1.46,-3.97,-1.15,0.65,-1.07,1.01,1633,1633,1500,1500,14.89,0,3,1,1
161,127197700,1008,332,2959,-783,-158,-318,-1,0.162109375,1.44482421875,-0.38232421875,-4.817073170731708,-9.695121951219512,-0.030487804878048783,0.276,-0.081,1.002,-0.97,-1.16,-3.92,0.65,-1.08,1.0,1633,1633,1500,1500,14.83,0,3,1,1
162,127198709,1009,-159,2783,1153,-315,-81,-61,-0.07763671875,1.35888671875,0.56298828125,-9.603658536585368,-2.4695121951219514,-1.8597560975609757,0.143,-0.056,1.058,-0.03,2.3,-3.35,0.65,-1.08,1.0,1633,1633,1500,1500,7.02,0,3,1,1
163,127199717,1008,-413,1945,1843,-285,232,-70,-0.20166015625,0.94970703125,0.89990234375,-8.689024390243903,7.073170731707318,-2.1341463414634148,-0.022,-0.015,1.041,0.68,4.3,0.22,0.65,-1.07,1.0,1633,1633,1500,1500,2.32,0,3,1,1
164,127200725,1008,-400,1455,1683,-67,361,-38,-0.1953125,0.71044921875,0.82177734375,-2.0426829268292686,11.006097560975611,-1.1585365853658538,-0.149,0.017,0.989,0.83,3.41,3.91,0.65,-1.07,1.0,1633,1633,1500,1500,9.8,0,3,1,1
165,127201734,1009,158,1516,396,175,313,28,0.0771484375,0.740234375,0.193359375,5.335365853658537,9.542682926829269,0.853658536585366,-0.156,0.002,0.949,0.26,0.35,5.88,0.65,-1.06,1.01,1633,1633,1500,1500,10.44,0,3,1,1
166,127202742,1008,580,1849,-1399,248,128,79,0.283203125,0.90283203125,-0.68310546875,7.560975609756098,3.9024390243902443,2.408536585365854,-0.023,-0.042,0.942,-0.63,-2.42,5.3,0.65,-1.06,1.02,1633,1633,1500,1500,3.13,0,3,1,1
167,127203751,1009,362,2178,-2344,173,-183,35,0.1767578125,1.0634765625,-1.14453125,5.274390243902439,-5.579268292682928,1.0670731707317074,0.162,-0.063,0.961,-0.78,-3.5,1.75,0.65,-1.07,1.02,1633,1633,1500,1500,9.05,0,3,1,1
168,127204759,1008,-18,2471,-1531,-12,-403,-48,-0.0087890625,1.20654296875,-0.74755859375,-0.3658536585365854,-12.286585365853659,-1.4634146341463417,0.254,-0.052,1.0,-0.04,-2.34,-2.85,0.65,-1.08,1.01,1633,1633,1500,1500,13.42,0,3,1,1
169,127205767,1008,-381,2589,532,-250,-344,-33,-0.18603515625,1.26416015625,0.259765625,-7.621951219512196,-10.487804878048781,-1.0060975609756098,0.173,-0.014,1.042,0.3,0.85,-5.32,0.65,-1.08,1.01,1633,1633,1500,1500,8.37,0,3,1,1
170,127206775,1008,-595,2142,2084,-285,-116,11,-0.29052734375,1.0458984375,1.017578125,-8.689024390243903,-3.536585365853659,0.3353658536585366,-0.015,0.033,1.042,0.08,3.34,-4.63,0.65,-1.08,1.0,1633,1633,1500,1500,3.18,0,3,1,1
171,127207784,1009,-41,1441,2428,-77,135,4,-0.02001953125,0.70361328125,1.185546875,-2.347560975609756,4.115853658536586,0.12195121951219513,-0.201,0.031,0.988,0.0,2.87,-1.62,0.65,-1.07,1.0,1633,1633,1500,1500,12.82,0,3,1,1
172,127208792,1008,726,1522,1666,110,283,30,0.3544921875,0.7431640625,0.8134765625,3.353658536585366,8.628048780487806,0.9146341463414634,-0.298,-0.029,0.949,-0.3,0.66,1.89,0.65,-1.06,1.0,1633,1633,1500,1500,18.53,0,3,1,1
173,127209800,1008,611,2150,-65,163,206,49,0.29833984375,1.0498046875,-0.03173828125,4.969512195121951,6.2804878048780495,1.4939024390243905,-0.245,-0.072,0.965,-0.71,-1.35,3.44,0.65,-1.05,1.01,1633,1633,1500,1500,15.73,0,3,1,1
174,127210809,1009,133,2205,-1884,150,16,-21,0.06494140625,1.07666015625,-0.919921875,4.573170731707317,0.48780487804878053,-0.6402439024390244,-0.06,-0.071,0.983,-0.26,-2.56,2.54,0.66,-1.05,1.01,1633,1633,1500,1500,5.76,0,3,1,1
175,127211843,1034,-108,2120,-2139,56,-114,-89,-0.052734375,1.03515625,-1.04443359375,1.707317073170732,-3.4756097560975614,-2.713414634146342,0.114,-0.051,0.991,0.72,-2.4,0.61,0.66,-1.06,1.01,1633,1633,1500,1500,5.97,0,3,1,1
176,127212825,982,-486,2395,-565,-105,-155,-54,-0.2373046875,1.16943359375,-0.27587890625,-3.2012195121951224,-4.725609756097561,-1.6463414634146343,0.139,-0.005,1.019,1.02,-0.66,-1.08,0.65,-1.06,1.01,1633,1633,1500,1500,6.76,0,3,1,1
177,127213834,1009,-640,2167,535,-134,-115,19,-0.3125,1.05810546875,0.26123046875,-4.085365853658537,-3.50609756097561,0.5792682926829269,0.076,0.044,1.025,0.48,0.79,-1.8,0.65,-1.06,1.01,1633,1633,1500,1500,4.49,0,3,1,1
178,127214842,1008,114,1466,214,45,-62,48,0.0556640625,0.7158203125,0.1044921875,1.3719512195121952,-1.8902439024390245,1.4634146341463417,0.047,0.028,0.976,-0.17,-0.06,-1.74,0.65,-1.06,1.01,1633,1633,1500,1500,2.91,0,3,1,1
179,127215851,1009,902,1480,-392,234,-55,53,0.4404296875,0.72265625,-0.19140625,7.134146341463415,-1.676829268292683,1.6158536585365855,0.07,-0.045,0.936,-0.66,-2.56,-1.63,0.65,-1.07,1.0,1633,1633,1500,1500,3.86,0,3,1,1
180,127216859,1008,649,2195,-872,234,-75,26,0.31689453125,1.07177734375,-0.42578125,7.134146341463415,-2.2865853658536586,0.7926829268292683,0.126,-0.088,0.957,-0.71,-4.22,-1.76,0.66,-1.07,1.0,1633,1633,1500,1500,7.92,0,3,1,1
181,127217867,1008,-73,2526,-1022,6,-84,-43,-0.03564453125,1.2333984375,-0.4990234375,0.1829268292682927,-2.5609756097560976,-1.3109756097560976,0.185,-0.068,1.001,-0.04,-3.0,-1.94,0.66,-1.08,1.0,1633,1633,1500,1500,9.96,0,3,1,1
182,127218875,1008,-542,2416,-670,-244,-84,-93,-0.2646484375,1.1796875,-0.3271484375,-7.439024390243903,-2.5609756097560976,-2.8353658536585367,0.208,-0.015,1.029,0.91,0.35,-2.06,0.66,-1.09,1.0,1633,1633,1500,1500,10.35,0,3,1,1
183,127219884,1009,-804,2391,285,-304,-52,-83,-0.392578125,1.16748046875,0.13916015625,-9.26829268292683,-1.5853658536585367,-2.530487804878049,0.153,0.048,1.051,1.44,3.2,-1.81,0.65,-1.09,1.0,1633,1633,1500,1500,7.91,0,3,1,1
184,127220892,1008,-733,2125,1346,-255,37,-4,-0.35791015625,1.03759765625,0.6572265625,-7.77439024390244,1.128048780487805,-0.12195121951219513,0.024,0.097,1.049,0.99,4.6,-0.74,0.65,-1.08,1.0,1633,1633,1500,1500,5.99,0,3,1,1
185,127221900,1008,132,1422,1425,-184,45,76,0.064453125,0.6943359375,0.69580078125,-5.609756097560976,1.3719512195121952,2.3170731707317076,-0.089,0.072,0.993,-0.11,4.8,0.05,0.65,-1.07,1.0,1633,1633,1500,1500,7.87,0,3,1,1
186,127222908,1008,1328,1173,763,-72,-43,85,0.6484375,0.57275390625,0.37255859375,-2.1951219512195124,-1.3109756097560976,2.5914634146341466,-0.134,-0.042,0.926,-0.95,3.8,-0.31,0.65,-1.07,1.0,1633,1633,1500,1500,9.54,0,3,1,1
187,127223916,1008,1429,2058,235,41,-40,37,0.69775390625,1.0048828125,0.11474609375,1.25,-1.2195121951219514,1.128048780487805,-0.131,-0.146,0.938,-1.01,1.97,-0.53,0.66,-1.06,1.0,1633,1633,1500,1500,12.12,0,3,1,1
188,127224925,1009,270,3008,41,82,7,-47,0.1318359375,1.46875,0.02001953125,2.5,0.2134146341463415,-1.4329268292682928,-0.113,-0.143,1.022,-0.2,0.34,-0.19,0.66,-1.06,1.0,1633,1633,1500,1500,10.39,0,3,1,1
189,127225933,1008,-985,2794,-136,69,17,-135,-0.48095703125,1.3642578125,-0.06640625,2.103658536585366,0.5182926829268293,-4.115853658536586,-0.085,-0.044,1.077,1.23,-0.6,0.13,0.66,-1.05,1.0,1633,1633,1500,1500,5.84,0,3,1,1
190,127226942,1009,-1540,2162,-184,59,85,-158,-0.751953125,1.0556640625,-0.08984375,1.7987804878048783,2.5914634146341466,-4.817073170731708,-0.057,0.081,1.073,2.42,-1.13,1.04,0.65,-1.05,1.0,1633,1633,1500,1500,6.48,0,3,1,1
191,127227949,1007,-1181,1835,278,3,106,-67,-0.57666015625,0.89599609375,0.1357421875,0.09146341463414635,3.231707317073171,-2.0426829268292686,-0.069,0.16,1.045,2.28,-0.91,1.86,0.65,-1.05,1.0,1633,1633,1500,1500,10.54,0,3,1,1
192,127228957,1008,106,1323,692,-63,-49,65,0.0517578125,0.64599609375,0.337890625,-1.9207317073170733,-1.4939024390243905,1.981707317073171,-0.112,0.126,0.982,0.85,-0.1,0.82,0.64,-1.05,1.0,1633,1633,1500,1500,10.97,0,3,1,1
193,127229966,1009,1628,950,233,-32,-211,131,0.794921875,0.4638671875,0.11376953125,-0.9756097560975611,-6.432926829268293,3.9939024390243905,-0.112,-0.019,0.899,-0.77,0.12,-1.51,0.64,-1.04,1.0,1633,1633,1500,1500,8.2,0,3,1,1
194,127230973,1007,1818,1638,-923,86,-222,107,0.8876953125,0.7998046875,-0.45068359375,2.6219512195121952,-6.7682926829268295,3.26219512195122,-0.023,-0.157,0.884,-1.61,-0.92,-3.18,0.65,-1.04,0.99,1633,1633,1500,1500,9.77,0,3,1,1
195,127231982,1009,369,2826,-1409,163,-132,0,0.18017578125,1.3798828125,-0.68798828125,4.969512195121951,-4.024390243902439,0.0,0.089,-0.16,0.962,-1.08,-2.4,-3.37,0.65,-1.05,0.99,1633,1633,1500,1500,9.77,0,3,1,1
196,127232990,1008,-1149,3134,-770,72,32,-128,-0.56103515625,1.5302734375,-0.3759765625,2.1951219512195124,0.9756097560975611,-3.9024390243902443,0.134,-0.046,1.052,0.57,-2.46,-1.83,0.66,-1.05,0.99,1633,1633,1500,1500,6.52,0,3,1,1
197,127233997,1007,-1659,2515,-275,-99,225,-151,-0.81005859375,1.22802734375,-0.13427734375,-3.0182926829268295,6.859756097560976,-4.603658536585367,0.134,0.089,1.08,1.91,-0.76,1.16,0.65,-1.06,0.99,1633,1633,1500,1500,8.08,0,3,1,1
198,127235006,1009,-1250,1693,-110,-183,205,-46,-0.6103515625,0.82666015625,-0.0537109375,-5.579268292682928,6.250000000000001,-1.402439024390244,0.122,0.172,1.04,1.73,1.22,2.95,0.64,-1.06,0.99,1633,1633,1500,1500,11.46,0,3,1,1
199,127236014,1008,-1,1078,263,-150,-30,88,-0.00048828125,0.5263671875,0.12841796875,-4.573170731707317,-0.9146341463414634,2.682926829268293,0.082,0.144,0.958,0.25,2.21,1.74,0.64,-1.06,1.0,1633,1633,1500,1500,9.97,0,3,1,1
200,127237022,1008,1514,1086,-16,-39,-186,173,0.7392578125,0.5302734375,-0.0078125,-1.1890243902439026,-5.670731707317073,5.274390243902439,0.07,0.004,0.89,-1.6,1.73,-0.64,0.64,-1.06,0.99,1633,1633,1500,1500,3.58,0,3,1,1
201,127238029,1007,1871,1726,-923,75,-207,165,0.91357421875,0.8427734375,-0.45068359375,2.2865853658536586,-6.310975609756098,5.0304878048780495,0.13,-0.141,0.883,-2.75,0.25,-2.45,0.65,-1.06,0.99,1633,1633,1500,1500,11.1,0,3,1,1
202,127239037,1008,752,2566,-914,112,-105,36,0.3671875,1.2529296875,-0.4462890625,3.414634146341464,-3.2012195121951224,1.0975609756097562,0.18,-0.176,0.941,-2.2,-1.1,-2.61,0.65,-1.07,0.99,1633,1633,1500,1500,13.82,0,3,1,1
203,127240046,1009,-660,3103,69,-7,104,-125,-0.322265625,1.51513671875,0.03369140625,-0.2134146341463415,3.1707317073170733,-3.810975609756098,0.146,-0.097,1.032,-0.2,-0.79,-0.59,0.66,-1.07,0.99,1633,1633,1500,1500,8.44,0,3,1,1
204,127241054,1008,-1407,2802,930,-200,233,-175,-0.68701171875,1.3681640625,0.4541015625,-6.097560975609756,7.103658536585367,-5.335365853658537,0.051,0.026,1.085,1.64,1.37,2.06,0.65,-1.07,0.99,1633,1633,1500,1500,2.64,0,3,1,1
205,127242062,1008,-1381,2007,1179,-238,211,-96,-0.67431640625,0.97998046875,0.57568359375,-7.25609756097561,6.432926829268293,-2.9268292682926833,-0.047,0.129,1.069,2.06,3.21,3.61,0.65,-1.07,0.99,1633,1633,1500,1500,8.39,0,3,1,1
206,127243071,1009,-522,1424,794,-110,115,29,-0.2548828125,0.6953125,0.3876953125,-3.353658536585366,3.50609756097561,0.8841463414634148,-0.101,0.149,1.009,1.07,3.12,3.66,0.64,-1.06,1.0,1633,1633,1500,1500,11.31,0,3,1,1
207,127244079,1008,966,1134,216,16,-67,129,0.4716796875,0.5537109375,0.10546875,0.48780487804878053,-2.0426829268292686,3.932926829268293,-0.102,0.05,0.937,-0.6,1.78,1.84,0.64,-1.05,1.0,1633,1633,1500,1500,8.2,0,3,1,1
208,127245087,1008,1837,1353,-135,50,-262,141,0.89697265625,0.66064453125,-0.06591796875,1.524390243902439,-7.987804878048781,4.298780487804878,-0.075,-0.099,0.893,-1.85,0.54,-1.35,0.65,-1.05,1.0,1633,1633,1500,1500,8.18,0,3,1,1
209,127246095,1008,1264,2257,-263,17,-275,48,0.6171875,1.10205078125,-0.12841796875,0.5182926829268293,-8.384146341463415,1.4634146341463417,-0.043,-0.181,0.926,-1.72,0.05,-3.62,0.65,-1.05,1.0,1633,1633,1500,1500,11.07,0,3,1,1
210,127247102,1007,-287,3193,-58,-38,-102,-84,-0.14013671875,1.55908203125,-0.0283203125,-1.1585365853658538,-3.1097560975609757,-2.5609756097560976,-0.031,-0.13,1.026,-0.3,0.29,-3.36,0.66,-1.05,0.99,1633,1633,1500,1500,7.17,0,3,1,1
211,127248110,1008,-1614,3096,361,-52,128,-165,-0.7880859375,1.51171875,0.17626953125,-1.5853658536585367,3.9024390243902443,-5.0304878048780495,-0.054,0.015,1.103,1.47,0.59,-0.84,0.65,-1.04,0.99,1633,1633,1500,1500,4.15,0,3,1,1
212,127249119,1009,-1717,2170,440,-4,285,-135,-0.83837890625,1.0595703125,0.21484375,-0.12195121951219513,8.689024390243903,-4.115853658536586,-0.08,0.145,1.096,2.35,0.3,2.43,0.65,-1.04,0.99,1633,1633,1500,1500,9.73,0,3,1,1
213,127250127,1008,-727,1506,-174,57,213,-15,-0.35498046875,0.7353515625,-0.0849609375,1.7378048780487807,6.4939024390243905,-0.4573170731707317,-0.054,0.178,1.039,1.71,-0.51,3.87,0.64,-1.04,1.0,1633,1633,1500,1500,11.16,0,3,1,1
214,127251135,1008,866,1092,-1239,121,-100,103,0.4228515625,0.533203125,-0.60498046875,3.689024390243903,-3.048780487804878,3.1402439024390247,0.05,0.083,0.959,0.08,-1.7,1.64,0.64,-1.04,1.0,1633,1633,1500,1500,5.95,0,3,1,1
215,127252144,1009,1985,1069,-1845,131,-423,148,0.96923828125,0.52197265625,-0.90087890625,3.9939024390243905,-12.896341463414636,4.51219512195122,0.185,-0.083,0.889,-1.46,-2.6,-3.13,0.64,-1.05,1.0,1633,1633,1500,1500,11.65,0,3,1,1
216,127253152,1008,1512,1875,-1324,25,-472,98,0.73828125,0.91552734375,-0.646484375,0.7621951219512195,-14.390243902439027,2.987804878048781,0.258,-0.187,0.893,-1.97,-2.11,-6.8,0.65,-1.06,0.99,1633,1633,1500,1500,18.43,0,3,1,1
217,127254159,1007,-82,2783,6,-136,-215,-30,-0.0400390625,1.35888671875,0.0029296875,-4.146341463414634,-6.5548780487804885,-0.9146341463414634,0.217,-0.151,0.967,-1.01,-0.15,-6.63,0.65,-1.07,0.98,1633,1633,1500,1500,14.05,0,3,1,1
218,127255166,1007,-1460,3051,1295,-215,191,-155,-0.712890625,1.48974609375,0.63232421875,-6.5548780487804885,5.823170731707317,-4.725609756097561,0.082,-0.014,1.05,0.89,1.95,-2.38,0.65,-1.07,0.98,1633,1633,1500,1500,3.41,0,3,1,1
219,127256174,1008,-1697,2546,1675,-154,532,-145,-0.82861328125,1.2431640625,0.81787109375,-4.695121951219512,16.219512195121954,-4.420731707317073,-0.06,0.119,1.081,2.06,2.74,3.92,0.65,-1.06,0.98,1633,1633,1500,1500,8.16,0,3,1,1
220,127257183,1009,-950,1604,1050,-57,519,0,-0.4638671875,0.783203125,0.5126953125,-1.7378048780487807,15.823170731707318,0.0,-0.132,0.174,1.033,1.36,2.27,7.99,0.64,-1.05,0.99,1633,1633,1500,1500,13.12,0,3,1,1
221,127258191,1008,372,974,-147,7,168,126,0.181640625,0.4755859375,-0.07177734375,0.2134146341463415,5.121951219512195,3.8414634146341466,-0.099,0.117,0.945,-0.38,1.3,7.12,0.64,-1.05,1.0,1633,1633,1500,1500,10.46,0,3,1,1
222,127259199,1008,1605,1312,-1334,49,-176,163,0.78369140625,0.640625,-0.6513671875,1.4939024390243905,-5.365853658536586,4.969512195121951,0.019,-0.025,0.896,-1.92,0.23,3.03,0.64,-1.05,1.0,1633,1633,1500,1500,0.98,0,3,1,1
223,127260208,1009,1588,2307,-1481,40,-292,116,0.775390625,1.12646484375,-0.72314453125,1.2195121951219514,-8.902439024390244,3.536585365853659,0.13,-0.144,0.933,-2.46,-0.38,-0.87,0.65,-1.05,1.0,1633,1633,1500,1500,10.61,0,3,1,1
224,127261216,1008,424,2792,-451,-11,-163,-7,0.20703125,1.36328125,-0.22021484375,-0.3353658536585366,-4.969512195121951,-0.2134146341463415,0.145,-0.154,1.001,-1.57,-0.27,-2.15,0.65,-1.06,1.0,1633,1633,1500,1500,10.75,0,3,1,1
225,127262224,1008,-867,2772,927,-82,85,-150,-0.42333984375,1.353515625,0.45263671875,-2.5,2.5914634146341466,-4.573170731707317,0.05,-0.062,1.057,0.47,0.52,-0.48,0.65,-1.06,1.0,1633,1633,1500,1500,3.19,0,3,1,1
226,127263233,1009,-1457,2620,1637,-79,331,-183,-0.71142578125,1.279296875,0.79931640625,-2.408536585365854,10.091463414634147,-5.579268292682928,-0.084,0.06,1.092,2.17,1.02,3.14,0.65,-1.05,1.0,1633,1633,1500,1500,6.67,0,3,1,1
227,127264241,1008,-1058,1906,883,67,401,-68,-0.5166015625,0.9306640625,0.43115234375,2.0426829268292686,12.225609756097562,-2.073170731707317,-0.139,0.132,1.066,2.13,-0.13,6.26,0.64,-1.05,1.01,1633,1633,1500,1500,11.45,0,3,1,1
228,127265250,1009,-14,1041,-634,201,157,63,-0.0068359375,0.50830078125,-0.3095703125,6.128048780487806,4.786585365853659,1.9207317073170733,-0.068,0.112,0.978,0.76,-2.27,5.85,0.64,-1.05,1.01,1633,1633,1500,1500,8.78,0,3,1,1
229,127266258,1008,1112,1028,-1692,168,-212,125,0.54296875,0.501953125,-0.826171875,5.121951219512195,-6.463414634146342,3.810975609756098,0.073,0.008,0.902,-0.76,-3.35,1.82,0.64,-1.05,1.02,1633,1633,1500,1500,3.8,0,3,1,1
230,127267266,1008,1383,1936,-1617,7,-423,117,0.67529296875,0.9453125,-0.78955078125,0.2134146341463415,-12.896341463414636,3.5670731707317076,0.187,-0.099,0.909,-1.71,-2.43,-3.01,0.64,-1.06,1.01,1633,1633,1500,1500,11.9,0,3,1,1
231,127268273,1007,520,2707,-353,-145,-331,35,0.25390625,1.32177734375,-0.17236328125,-4.420731707317073,-10.091463414634147,1.0670731707317074,0.184,-0.124,0.974,-1.5,-0.27,-5.29,0.65,-1.07,1.01,1633,1633,1500,1500,11.62,0,3,1,1
232,127269281,1008,-579,2821,1221,-208,0,-86,-0.28271484375,1.37744140625,0.59619140625,-6.341463414634147,0.0,-2.6219512195121952,0.06,-0.059,1.038,-0.13,1.8,-3.43,0.65,-1.07,1.0,1633,1633,1500,1500,3.48,0,3,1,1
233,127270288,1007,-1060,2603,2019,-165,338,-139,-0.517578125,1.27099609375,0.98583984375,-5.0304878048780495,10.30487804878049,-4.237804878048781,-0.105,0.031,1.075,1.32,2.75,1.24,0.65,-1.06,1.01,1633,1633,1500,1500,7.05,0,3,1,1
234,127271296,1008,-793,1981,1168,7,479,-62,-0.38720703125,0.96728515625,0.5703125,0.2134146341463415,14.603658536585368,-1.8902439024390245,-0.178,0.088,1.058,1.5,1.62,5.8,0.64,-1.05,1.01,1633,1633,1500,1500,11.92,0,3,1,1
235,127272305,1009,-35,1253,-796,223,308,54,-0.01708984375,0.61181640625,-0.388671875,6.798780487804879,9.390243902439025,1.6463414634146343,-0.088,0.076,0.987,0.44,-1.32,7.08,0.64,-1.05,1.02,1633,1633,1500,1500,8.01,0,3,1,1
236,127273313,1008,853,1214,-2146,278,-50,110,0.41650390625,0.5927734375,-1.0478515625,8.475609756097562,-1.524390243902439,3.353658536585366,0.091,-0.001,0.924,-0.83,-3.84,4.29,0.64,-1.06,1.02,1633,1633,1500,1500,4.62,0,3,1,1
237,127274321,1008,1136,1990,-1984,111,-338,94,0.5546875,0.9716796875,-0.96875,3.3841463414634148,-10.30487804878049,2.8658536585365857,0.23,-0.089,0.932,-1.52,-3.82,-0.5,0.64,-1.07,1.02,1633,1633,1500,1500,13.63,0,3,1,1
238,127275327,1006,504,2796,-647,-137,-417,18,0.24609375,1.365234375,-0.31591796875,-4.176829268292683,-12.713414634146343,0.5487804878048781,0.244,-0.113,1.001,-1.2,-1.27,-4.49,0.65,-1.08,1.02,1633,1633,1500,1500,13.83,0,3,1,1
239,127276336,1009,-411,2883,666,-255,-218,-70,-0.20068359375,1.40771484375,0.3251953125,-7.77439024390244,-6.646341463414635,-2.1341463414634148,0.153,-0.064,1.065,-0.09,1.61,-5.13,0.65,-1.08,1.01,1633,1633,1500,1500,7.64,0,3,1,1
240,127277344,1008,-951,2316,1703,-181,110,-109,-0.46435546875,1.130859375,0.83154296875,-5.5182926829268295,3.353658536585366,-3.3231707317073176,-0.002,0.019,1.075,1.04,2.78,-2.2,0.65,-1.07,1.01,1633,1633,1500,1500,2.09,0,3,1,1
241,127278353,1009,-846,1595,2245,-16,331,-66,-0.4130859375,0.77880859375,1.09619140625,-0.48780487804878053,10.091463414634147,-2.0121951219512195,-0.175,0.082,1.028,1.35,1.88,1.99,0.64,-1.07,1.01,1633,1633,1500,1500,11.95,0,3,1,1
242,127279361,1008,-85,1245,923,147,311,32,-0.04150390625,0.60791015625,0.45068359375,4.481707317073171,9.481707317073171,0.9756097560975611,-0.219,0.075,0.962,0.57,-0.37,4.58,0.64,-1.06,1.02,1633,1633,1500,1500,14.8,0,3,1,1
243,127280369,1008,825,1399,-1502,228,24,112,0.40283203125,0.68310546875,-0.7333984375,6.951219512195123,0.7317073170731708,3.414634146341464,-0.068,0.0,0.917,-0.76,-2.7,3.38,0.64,-1.06,1.02,1633,1633,1500,1500,5.36,0,3,1,1
244,127281378,1009,1007,1913,-2638,183,-326,104,0.49169921875,0.93408203125,-1.2880859375,5.579268292682928,-9.939024390243903,3.1707317073170733,0.146,-0.078,0.92,-1.57,-3.79,-0.98,0.64,-1.07,1.02,1633,1633,1500,1500,9.0,0,3,1,1
245,127282384,1006,408,2647,-1567,5,-485,12,0.19921875,1.29248046875,-0.76513671875,0.15243902439024393,-14.786585365853659,0.3658536585365854,0.244,-0.097,0.979,-1.18,-2.71,-5.51,0.65,-1.08,1.01,1633,1633,1500,1500,13.83,0,3,1,1
246,127283391,1007,-248,2960,643,-226,-326,-60,-0.12109375,1.4453125,0.31396484375,-6.890243902439025,-9.939024390243903,-1.829268292682927,0.156,-0.062,1.053,-0.18,0.36,-6.9,0.65,-1.08,1.01,1633,1633,1500,1500,7.84,0,3,1,1
247,127284399,1008,-604,2386,2179,-280,8,-72,-0.294921875,1.1650390625,1.06396484375,-8.536585365853659,0.24390243902439027,-2.1951219512195124,-0.037,-0.005,1.071,0.6,2.96,-4.42,0.65,-1.08,1.0,1633,1633,1500,1500,3.1,0,3,1,1
248,127285405,1006,-493,1547,2433,-97,262,-64,-0.24072265625,0.75537109375,1.18798828125,-2.957317073170732,7.987804878048781,-1.9512195121951221,-0.219,0.033,1.02,1.04,2.83,-0.18,0.65,-1.07,1.0,1633,1633,1500,1500,13.47,0,3,1,1
249,127286413,1008,114,1322,1286,143,346,-12,0.0556640625,0.6455078125,0.6279296875,4.359756097560976,10.548780487804878,-0.3658536585365854,-0.284,0.019,0.961,0.81,0.29,3.49,0.65,-1.06,1.01,1633,1633,1500,1500,17.65,0,3,1,1
250,127287422,1009,552,1707,-1111,285,214,69,0.26953125,0.83349609375,-0.54248046875,8.689024390243903,6.52439024390244,2.103658536585366,-0.153,-0.026,0.941,-0.16,-2.84,4.59,0.65,-1.06,1.01,1633,1633,1500,1500,10.36,0,3,1,1
251,127288430,1008,393,2106,-2902,267,-87,61,0.19189453125,1.0283203125,-1.4169921875,8.140243902439025,-2.6524390243902443,1.8597560975609757,0.095,-0.052,0.954,-0.74,-4.74,2.25,0.65,-1.06,1.01,1633,1633,1500,1500,5.29,0,3,1,1
252,127289438,1008,91,2482,-2260,46,-360,-22,0.04443359375,1.2119140625,-1.103515625,1.402439024390244,-10.975609756097562,-0.6707317073170732,0.255,-0.051,0.995,-0.27,-3.75,-2.08,0.65,-1.07,1.01,1633,1633,1500,1500,13.51,0,3,1,1
253,127290447,1009,-186,2654,-144,-259,-420,-34,-0.0908203125,1.2958984375,-0.0703125,-7.896341463414635,-12.80487804878049,-1.0365853658536586,0.226,-0.028,1.043,0.15,0.0,-5.58,0.65,-1.08,1.0,1633,1633,1500,1500,11.19,0,3,1,1
254,127291455,1008,-548,2117,1280,-310,-237,11,-0.267578125,1.03369140625,0.625,-9.451219512195122,-7.225609756097562,0.3353658536585366,0.091,0.018,1.041,-0.01,3.03,-6.04,0.65,-1.08,1.0,1633,1633,1500,1500,4.25,0,3,1,1
255,127292463,1008,-278,1415,1795,-73,20,13,-0.1357421875,0.69091796875,0.87646484375,-2.225609756097561,0.6097560975609757,0.39634146341463417,-0.062,0.036,0.986,-0.14,2.63,-3.73,0.65,-1.07,1.0,1633,1633,1500,1500,5.46,0,3,1,1
256,127293472,1009,611,1425,1283,162,207,27,0.29833984375,0.69580078125,0.62646484375,4.939024390243903,6.310975609756098,0.8231707317073171,-0.151,-0.016,0.94,-0.38,-0.03,-0.28,0.65,-1.07,0.99,1633,1633,1500,1500,10.26,0,3,1,1
257,127294480,1008,763,2015,-728,269,212,58,0.37255859375,0.98388671875,-0.35546875,8.201219512195122,6.463414634146342,1.7682926829268295,-0.071,-0.072,0.947,-0.85,-2.89,2.05,0.65,-1.07,1.0,1633,1633,1500,1500,6.54,0,3,1,1
258,127295488,1008,129,2312,-2397,222,8,10,0.06298828125,1.12890625,-1.17041015625,6.7682926829268295,0.24390243902439027,0.30487804878048785,0.125,-0.071,0.975,-0.67,-4.32,1.53,0.65,-1.08,1.0,1633,1633,1500,1500,7.16,0,3,1,1
259,127296497,1009,-307,2261,-1944,-19,-207,-68,-0.14990234375,1.10400390625,-0.94921875,-0.5792682926829269,-6.310975609756098,-2.073170731707317,0.256,-0.036,0.996,0.23,-2.81,-0.99,0.65,-1.08,1.0,1633,1633,1500,1500,13.42,0,3,1,1
260,127297505,1008,-606,2420,14,-306,-256,-63,-0.2958984375,1.181640625,0.0068359375,-9.329268292682928,-7.8048780487804885,-1.9207317073170733,0.214,0.016,1.025,0.79,1.11,-3.18,0.65,-1.09,0.99,1633,1633,1500,1500,10.84,0,3,1,1
261,127298513,1008,-812,2280,1877,-390,-126,8,-0.396484375,1.11328125,0.91650390625,-11.890243902439025,-3.8414634146341466,0.24390243902439027,0.035,0.076,1.039,0.43,4.58,-3.32,0.65,-1.08,0.99,1633,1633,1500,1500,4.95,0,3,1,1
262,127299521,1008,-100,1536,2530,-225,53,57,-0.048828125,0.75,1.2353515625,-6.859756097560976,1.6158536585365855,1.7378048780487807,-0.166,0.072,0.993,-0.29,5.21,-1.58,0.65,-1.07,0.99,1633,1633,1500,1500,11.61,0,3,1,1
263,127300530,1009,1107,1358,1759,37,151,71,0.54052734375,0.6630859375,0.85888671875,1.128048780487805,4.603658536585367,2.164634146341464,-0.276,-0.024,0.941,-0.92,2.96,0.57,0.65,-1.06,0.99,1633,1633,1500,1500,17.46,0,3,1,1
264,127301538,1008,1228,2169,86,245,167,50,0.599609375,1.05908203125,0.0419921875,7.469512195121952,5.091463414634147,1.524390243902439,-0.239,-0.116,0.959,-1.13,-0.65,2.17,0.65,-1.06,0.99,1633,1633,1500,1500,16.19,0,3,1,1
265,127302547,1009,354,2619,-1427,296,96,-22,0.1728515625,1.27880859375,-0.69677734375,9.02439024390244,2.9268292682926833,-0.6707317073170732,-0.09,-0.125,1.01,-0.53,-3.58,2.51,0.66,-1.06,0.99,1633,1633,1500,1500,8.87,0,3,1,1
266,127303553,1006,-496,2297,-1992,154,-54,-96,-0.2421875,1.12158203125,-0.97265625,4.695121951219512,-1.6463414634146343,-2.9268292682926833,0.078,-0.066,1.028,0.61,-4.09,1.2,0.66,-1.06,1.0,1633,1633,1500,1500,4.47,0,3,1,1
267,127304560,1007,-1018,2164,-1341,-51,-181,-113,-0.4970703125,1.056640625,-0.65478515625,-1.5548780487804879,-5.5182926829268295,-3.4451219512195124,0.169,0.022,1.032,1.55,-2.33,-0.95,0.66,-1.07,0.99,1633,1633,1500,1500,8.47,0,3,1,1
268,127305568,1008,-1034,2140,-104,-153,-177,-45,-0.5048828125,1.044921875,-0.05078125,-4.664634146341464,-5.396341463414634,-1.3719512195121952,0.15,0.099,1.034,1.48,-0.12,-2.35,0.65,-1.07,0.99,1633,1633,1500,1500,9.43,0,3,1,1
269,127306577,1009,-334,1633,935,-127,-92,57,-0.1630859375,0.79736328125,0.45654296875,-3.8719512195121957,-2.804878048780488,1.7378048780487807,0.054,0.109,0.996,0.4,1.07,-2.41,0.65,-1.07,0.99,1633,1633,1500,1500,7.2,0,3,1,1
270,127307585,1008,876,1194,1546,-62,-69,95,0.427734375,0.5830078125,0.7548828125,-1.8902439024390245,-2.103658536585366,2.8963414634146343,-0.073,0.024,0.931,-0.7,1.21,-2.22,0.65,-1.07,0.99,1633,1633,1500,1500,6.01,0,3,1,1
271,127308593,1008,1512,1660,765,13,-39,70,0.73828125,0.810546875,0.37353515625,0.39634146341463417,-1.1890243902439026,2.1341463414634148,-0.121,-0.096,0.912,-1.19,0.54,-1.79,0.65,-1.06,0.99,1633,1633,1500,1500,10.17,0,3,1,1
272,127309602,1009,758,2610,-942,96,74,7,0.3701171875,1.2744140625,-0.4599609375,2.9268292682926833,2.25609756097561,0.2134146341463415,-0.029,-0.14,0.969,-0.87,-0.74,-0.35,0.66,-1.06,0.99,1633,1633,1500,1500,8.06,0,3,1,1
273,127310610,1008,-638,2974,-1435,93,132,-80,-0.3115234375,1.4521484375,-0.70068359375,2.8353658536585367,4.024390243902439,-2.439024390243903,0.086,-0.068,1.046,0.22,-1.57,1.2,0.66,-1.07,0.99,1633,1633,1500,1500,4.78,0,3,1,1
274,127311618,1008,-1457,2656,-684,-47,110,-136,-0.71142578125,1.296875,-0.333984375,-1.4329268292682928,3.353658536585366,-4.146341463414634,0.125,0.055,1.085,1.53,-0.7,2.0,0.65,-1.07,0.99,1633,1633,1500,1500,6.57,0,3,1,1
275,127312626,1008,-1271,2113,-64,-210,67,-89,-0.62060546875,1.03173828125,-0.03125,-6.402439024390245,2.0426829268292686,-2.713414634146342,0.11,0.144,1.077,1.92,1.54,2.1,0.65,-1.07,0.99,1633,1633,1500,1500,9.56,0,3,1,1
276,127313634,1008,-202,1419,310,-241,-40,33,-0.0986328125,0.69287109375,0.1513671875,-7.347560975609757,-1.2195121951219514,1.0060975609756098,0.069,0.137,1.016,0.93,3.35,1.08,0.64,-1.07,0.99,1633,1633,1500,1500,8.81,0,3,1,1
277,127314642,1008,1276,957,909,-134,-150,113,0.623046875,0.46728515625,0.44384765625,-4.085365853658537,-4.573170731707317,3.4451219512195124,-0.012,0.016,0.929,-0.53,3.46,-0.72,0.64,-1.06,0.99,1633,1633,1500,1500,2.48,0,3,1,1
278,127315651,1009,1983,1297,941,0,-133,105,0.96826171875,0.63330078125,0.45947265625,0.0,-4.0548780487804885,3.2012195121951224,-0.083,-0.139,0.882,-1.43,2.17,-1.75,0.65,-1.06,0.99,1633,1633,1500,1500,10.49,0,3,1,1
279,127316659,1008,1071,2361,116,99,6,29,0.52294921875,1.15283203125,0.056640625,3.0182926829268295,0.1829268292682927,0.8841463414634148,-0.078,-0.2,0.925,-1.25,0.3,-1.01,0.65,-1.06,0.99,1633,1633,1500,1500,12.94,0,3,1,1
280,127317667,1008,-723,3208,-382,124,146,-85,-0.35302734375,1.56640625,-0.1865234375,3.780487804878049,4.451219512195122,-2.5914634146341466,-0.036,-0.112,1.026,0.02,-1.19,0.89,0.66,-1.06,0.99,1633,1633,1500,1500,6.39,0,3,1,1
281,127318675,1008,-1816,2900,-276,49,223,-159,-0.88671875,1.416015625,-0.134765625,1.4939024390243905,6.798780487804879,-4.847560975609756,-0.009,0.046,1.088,1.62,-1.42,2.96,0.65,-1.06,0.99,1633,1633,1500,1500,3.46,0,3,1,1
282,127319684,1009,-1601,1967,3,-78,208,-107,-0.78173828125,0.96044921875,0.00146484375,-2.378048780487805,6.341463414634147,-3.26219512195122,-0.008,0.162,1.068,2.16,-0.28,4.17,0.65,-1.06,1.0,1633,1633,1500,1500,9.44,0,3,1,1
283,127320692,1008,-461,1311,57,-137,49,36,-0.22509765625,0.64013671875,0.02783203125,-4.176829268292683,1.4939024390243905,1.0975609756097562,-0.011,0.172,1.0,1.06,1.07,3.36,0.64,-1.05,1.0,1633,1633,1500,1500,10.58,0,3,1,1
284,127321700,1008,1149,1051,-336,-56,-174,144,0.56103515625,0.51318359375,-0.1640625,-1.707317073170732,-5.3048780487804885,4.390243902439025,0.016,0.056,0.923,-0.76,1.15,0.55,0.64,-1.05,1.0,1633,1633,1500,1500,4.13,0,3,1,1
285,127322709,1009,2096,1312,-744,61,-301,163,1.0234375,0.640625,-0.36328125,1.8597560975609757,-9.176829268292684,4.969512195121951,0.071,-0.114,0.878,-2.17,0.01,-2.61,0.64,-1.05,1.0,1633,1633,1500,1500,7.68,0,3,1,1
286,127323715,1006,1369,2135,-735,95,-267,91,0.66845703125,1.04248046875,-0.35888671875,2.8963414634146343,-8.140243902439025,2.774390243902439,0.117,-0.202,0.904,-2.38,-1.09,-4.37,0.65,-1.06,0.99,1633,1633,1500,1500,13.44,0,3,1,1
287,127324722,1007,-404,2993,-114,16,-102,-53,-0.197265625,1.46142578125,-0.0556640625,0.48780487804878053,-3.1097560975609757,-1.6158536585365855,0.107,-0.139,0.992,-1.05,-1.02,-3.86,0.66,-1.06,0.99,1633,1633,1500,1500,8.89,0,3,1,1
288,127325730,1008,-1659,3097,671,-107,155,-162,-0.81005859375,1.51220703125,0.32763671875,-3.26219512195122,4.725609756097561,-4.939024390243903,0.038,0.011,1.075,0.94,0.27,-0.9,0.66,-1.06,0.99,1633,1633,1500,1500,1.59,0,3,1,1
289,127326739,1009,-1665,2339,674,-128,340,-118,-0.81298828125,1.14208984375,0.3291015625,-3.9024390243902443,10.365853658536587,-3.5975609756097566,-0.019,0.138,1.085,1.82,1.35,2.95,0.65,-1.06,0.99,1633,1633,1500,1500,8.2,0,3,1,1
290,127327746,1007,-864,1473,153,-62,258,21,-0.421875,0.71923828125,0.07470703125,-1.8902439024390245,7.865853658536586,0.6402439024390244,-0.028,0.183,1.027,0.99,1.4,4.68,0.64,-1.06,1.0,1633,1633,1500,1500,11.1,0,3,1,1
291,127328755,1009,561,1058,-257,-13,-8,133,0.27392578125,0.5166015625,-0.12548828125,-0.39634146341463417,-0.24390243902439027,4.0548780487804885,-0.004,0.11,0.946,-0.7,0.93,3.12,0.64,-1.06,1.0,1633,1633,1500,1500,7.44,0,3,1,1
292,127329763,1008,1828,1298,-737,-4,-251,175,0.892578125,0.6337890625,-0.35986328125,-0.12195121951219513,-7.652439024390245,5.335365853658537,0.053,-0.048,0.896,-2.25,0.53,-0.39,0.64,-1.06,1.0,1633,1633,1500,1500,3.38,0,3,1,1
293,127330771,1008,1559,2133,-699,-21,-315,108,0.76123046875,1.04150390625,-0.34130859375,-0.6402439024390244,-9.603658536585368,3.2926829268292686,0.099,-0.161,0.919,-2.61,0.43,-3.38,0.65,-1.06,1.0,1633,1633,1500,1500,10.54,0,3,1,1
294,127331780,1009,141,2983,166,-52,-153,-43,0.06884765625,1.45654296875,0.0810546875,-1.5853658536585367,-4.664634146341464,-1.3109756097560976,0.07,-0.146,1.004,-1.3,0.68,-3.72,0.66,-1.06,0.99,1633,1633,1500,1500,8.18,0,3,1,1
295,127332788,1008,-1144,3148,839,-93,111,-160,-0.55859375,1.537109375,0.40966796875,-2.8353658536585367,3.3841463414634148,-4.878048780487806,-0.005,-0.034,1.089,0.75,1.27,-1.26,0.66,-1.06,0.99,1633,1633,1500,1500,1.79,0,3,1,1
296,127333796,1008,-1667,2525,916,-71,302,-153,-0.81396484375,1.23291015625,0.447265625,-2.164634146341464,9.207317073170733,-4.664634146341464,-0.075,0.099,1.112,2.05,1.44,2.32,0.65,-1.05,0.99,1633,1633,1500,1500,7.6,0,3,1,1
297,127334805,1009,-1169,1666,487,9,292,-48,-0.57080078125,0.8134765625,0.23779296875,0.27439024390243905,8.902439024390244,-1.4634146341463417,-0.101,0.174,1.064,1.85,0.73,4.61,0.64,-1.05,1.0,1633,1633,1500,1500,11.85,0,3,1,1
298,127335812,1007,343,990,-360,46,67,75,0.16748046875,0.4833984375,-0.17578125,1.402439024390244,2.0426829268292686,2.2865853658536586,-0.057,0.12,0.972,0.45,-0.11,3.84,0.64,-1.05,1.0,1633,1633,1500,1500,8.87,0,3,1,1
299,127336821,1009,1752,982,-1144,39,-259,154,0.85546875,0.4794921875,-0.55859375,1.1890243902439026,-7.896341463414635,4.695121951219512,0.04,-0.034,0.894,-1.27,-0.6,0.0,0.64,-1.05,1.0,1633,1633,1500,1500,2.18,0,3,1,1
300,127337827,1006,1707,1838,-1350,25,-452,125,0.83349609375,0.8974609375,-0.6591796875,0.7621951219512195,-13.78048780487805,3.810975609756098,0.138,-0.161,0.894,-2.12,-0.78,-4.52,0.65,-1.05,1.0,1633,1633,1500,1500,12.19,0,3,1,1
301,127338833,1006,414,2744,-582,-34,-340,0,0.2021484375,1.33984375,-0.2841796875,-1.0365853658536586,-10.365853658536587,0.0,0.161,-0.167,0.965,-1.42,-0.31,-6.38,0.66,-1.06,0.99,1633,1633,1500,1500,12.36,0,3,1,1
302,127339842,1009,-1012,3011,820,-115,-26,-131,-0.494140625,1.47021484375,0.400390625,-3.50609756097561,-0.7926829268292683,-3.9939024390243905,0.072,-0.062,1.045,0.38,0.83,-4.43,0.66,-1.06,0.99,1633,1633,1500,1500,4.01,0,3,1,1
303,127340850,1008,-1565,2534,1601,-98,290,-164,-0.76416015625,1.2373046875,0.78173828125,-2.987804878048781,8.841463414634147,-5.0,-0.063,0.068,1.075,1.91,1.42,0.09,0.65,-1.05,0.99,1633,1633,1500,1500,6.16,0,3,1,1
304,127341861,1011,-1187,1828,986,19,413,-62,-0.57958984375,0.892578125,0.4814453125,0.5792682926829269,12.591463414634147,-1.8902439024390245,-0.129,0.149,1.046,1.9,0.62,4.36,0.65,-1.05,0.99,1633,1633,1500,1500,11.9,0,3,1,1
305,127342867,1006,-190,1377,-466,117,202,79,-0.0927734375,0.67236328125,-0.2275390625,3.5670731707317076,6.158536585365854,2.408536585365854,-0.072,0.14,0.987,0.45,-0.91,5.05,0.64,-1.05,1.0,1633,1633,1500,1500,10.19,0,3,1,1
306,127343875,1008,1155,1239,-1547,106,-199,153,0.56396484375,0.60498046875,-0.75537109375,3.231707317073171,-6.067073170731708,4.664634146341464,0.058,0.028,0.926,-1.26,-1.81,1.41,0.64,-1.05,1.0,1633,1633,1500,1500,3.52,0,3,1,1
307,127344883,1008,1667,1808,-1373,-17,-424,133,0.81396484375,0.8828125,-0.67041015625,-0.5182926829268293,-12.926829268292684,4.0548780487804885,0.155,-0.104,0.919,-2.2,-1.16,-3.29,0.65,-1.06,0.99,1633,1633,1500,1500,10.3,0,3,1,1
308,127345892,1009,890,2567,-286,-146,-271,39,0.4345703125,1.25341796875,-0.1396484375,-4.451219512195122,-8.26219512195122,1.1890243902439026,0.153,-0.157,0.972,-1.87,0.57,-4.86,0.65,-1.06,0.99,1633,1633,1500,1500,11.51,0,3,1,1
309,127346899,1007,-414,2760,916,-177,83,-92,-0.2021484375,1.34765625,0.447265625,-5.396341463414634,2.530487804878049,-2.804878048780488,0.057,-0.1,1.032,-0.31,2.05,-2.3,0.66,-1.06,0.99,1633,1633,1500,1500,5.33,0,3,1,1
310,127347907,1008,-1339,2705,1756,-103,402,-172,-0.65380859375,1.32080078125,0.857421875,-3.1402439024390247,12.256097560975611,-5.2439024390243905,-0.087,0.019,1.077,1.53,2.28,2.65,0.65,-1.05,0.99,1633,1633,1500,1500,5.94,0,3,1,1
311,127348916,1009,-1221,2243,1163,35,538,-106,-0.59619140625,1.09521484375,0.56787109375,1.0670731707317074,16.402439024390244,-3.231707317073171,-0.163,0.11,1.08,2.09,1.03,7.33,0.65,-1.05,1.0,1633,1633,1500,1500,11.61,0,3,1,1
312,127349924,1008,-280,1303,-766,181,333,37,-0.13671875,0.63623046875,-0.3740234375,5.5182926829268295,10.152439024390246,1.128048780487805,-0.078,0.114,1.01,1.01,-1.28,8.36,0.64,-1.05,1.01,1633,1633,1500,1500,8.99,0,3,1,1
313,127350932,1008,881,871,-2184,238,-107,121,0.43017578125,0.42529296875,-1.06640625,7.25609756097561,-3.26219512195122,3.689024390243903,0.103,0.028,0.917,-0.56,-3.41,4.56,0.64,-1.05,1.01,1633,1633,1500,1500,5.89,0,3,1,1
314,127351941,1009,1431,1586,-2040,111,-433,128,0.69873046875,0.7744140625,-0.99609375,3.3841463414634148,-13.201219512195124,3.9024390243902443,0.244,-0.086,0.894,-1.69,-3.53,-1.29,0.65,-1.06,1.01,1633,1633,1500,1500,14.99,0,3,1,1
315,127352947,1006,763,2572,-630,-130,-488,73,0.37255859375,1.255859375,-0.3076171875,-3.963414634146342,-14.878048780487806,2.225609756097561,0.254,-0.132,0.952,-1.87,-1.16,-5.74,0.65,-1.07,1.0,1633,1633,1500,1500,15.54,0,3,1,1
316,127353955,1008,-429,2854,1096,-265,-254,-44,-0.20947265625,1.3935546875,0.53515625,-8.079268292682928,-7.743902439024391,-1.3414634146341464,0.129,-0.077,1.022,-0.8,1.79,-6.32,0.65,-1.07,1.0,1633,1633,1500,1500,7.16,0,3,1,1
317,127354963,1008,-1020,2635,2365,-219,197,-133,-0.498046875,1.28662109375,1.15478515625,-6.676829268292684,6.00609756097561,-4.0548780487804885,-0.074,0.013,1.064,0.81,3.29,-2.11,0.65,-1.07,0.99,1633,1633,1500,1500,5.25,0,3,1,1
318,127355971,1008,-853,2105,2267,-44,535,-86,-0.41650390625,1.02783203125,1.10693359375,-1.3414634146341464,16.3109756097561,-2.6219512195121952,-0.237,0.077,1.058,1.41,2.51,4.13,0.65,-1.06,1.0,1633,1633,1500,1500,14.54,0,3,1,1
319,127356980,1009,-250,1434,382,189,482,27,-0.1220703125,0.7001953125,0.1865234375,5.76219512195122,14.695121951219514,0.8231707317073171,-0.229,0.084,1.001,0.65,-0.38,7.75,0.65,-1.05,1.01,1633,1633,1500,1500,14.97,0,3,1,1
320,127357988,1008,690,1217,-1960,322,128,100,0.3369140625,0.59423828125,-0.95703125,9.817073170731708,3.9024390243902443,3.048780487804878,-0.041,0.017,0.936,-0.59,-3.67,6.55,0.65,-1.05,1.01,1633,1633,1500,1500,3.99,0,3,1,1
321,127358996,1008,1146,1807,-2852,228,-272,112,0.5595703125,0.88232421875,-1.392578125,6.951219512195123,-8.292682926829269,3.414634146341464,0.185,-0.073,0.928,-1.54,-4.9,1.67,0.65,-1.06,1.01,1633,1633,1500,1500,10.95,0,3,1,1
322,127360004,1008,592,2711,-1482,-41,-508,39,0.2890625,1.32373046875,-0.7236328125,-1.25,-15.487804878048783,1.1890243902439026,0.271,-0.108,0.99,-1.43,-2.97,-3.97,0.65,-1.07,1.01,1633,1633,1500,1500,15.19,0,3,1,1
323,127361012,1008,-142,2953,410,-249,-384,-62,-0.0693359375,1.44189453125,0.2001953125,-7.591463414634147,-11.707317073170733,-1.8902439024390245,0.196,-0.079,1.062,-0.32,0.42,-6.47,0.66,-1.08,1.0,1633,1633,1500,1500,10.05,0,3,1,1
324,127362021,1009,-681,2409,1386,-212,0,-110,-0.33251953125,1.17626953125,0.6767578125,-6.463414634146342,0.0,-3.353658536585366,0.057,-0.014,1.08,0.89,2.31,-4.22,0.65,-1.08,1.0,1633,1633,1500,1500,1.99,0,3,1,1
325,127363029,1008,-962,1712,2202,-36,308,-100,-0.4697265625,0.8359375,1.0751953125,-1.0975609756097562,9.390243902439025,-3.048780487804878,-0.121,0.062,1.041,1.6,1.77,0.41,0.65,-1.07,1.0,1633,1633,1500,1500,8.75,0,3,1,1
326,127364037,1008,-412,1359,1747,106,400,-30,-0.201171875,0.66357421875,0.85302734375,3.231707317073171,12.195121951219512,-0.9146341463414634,-0.237,0.084,0.981,1.37,-0.03,4.44,0.65,-1.06,1.0,1633,1633,1500,1500,15.65,0,3,1,1
327,127365046,1009,569,1343,-803,175,242,75,0.27783203125,0.65576171875,-0.39208984375,5.335365853658537,7.378048780487806,2.2865853658536586,-0.137,0.026,0.93,0.13,-1.93,5.51,0.65,-1.06,1.01,1633,1633,1500,1500,9.77,0,3,1,1
328,127366054,1008,895,1632,-2837,189,-109,104,0.43701171875,0.796875,-1.38525390625,5.76219512195122,-3.3231707317073176,3.1707317073170733,0.103,-0.046,0.908,-0.97,-3.34,2.64,0.65,-1.07,1.01,1633,1633,1500,1500,5.9,0,3,1,1
329,127367062,1008,583,2366,-2364,80,-391,20,0.28466796875,1.1552734375,-1.154296875,2.439024390243903,-11.920731707317074,0.6097560975609757,0.27,-0.084,0.948,-0.85,-3.17,-2.14,0.65,-1.08,1.01,1633,1633,1500,1500,15.43,0,3,1,1
330,127368071,1009,66,2924,-91,-198,-382,-54,0.0322265625,1.427734375,-0.04443359375,-6.036585365853659,-11.646341463414634,-1.6463414634146343,0.234,-0.076,1.024,-0.02,-0.22,-5.23,0.65,-1.08,1.01,1633,1633,1500,1500,12.32,0,3,1,1
331,127369079,1008,-525,2621,1901,-360,-114,-69,-0.25634765625,1.27978515625,0.92822265625,-10.975609756097562,-3.4756097560975614,-2.103658536585366,0.05,-0.023,1.064,0.67,3.38,-4.55,0.65,-1.08,1.0,1633,1633,1500,1500,1.71,0,3,1,1
332,127370087,1008,-651,1842,2440,-177,209,-72,-0.31787109375,0.8994140625,1.19140625,-5.396341463414634,6.371951219512195,-2.1951219512195124,-0.146,0.03,1.038,1.17,3.92,-0.81,0.65,-1.07,1.0,1633,1633,1500,1500,9.43,0,3,1,1
333,127371096,1009,-125,1386,1827,137,390,-33,-0.06103515625,0.6767578125,0.89208984375,4.176829268292683,11.890243902439025,-1.0060975609756098,-0.265,0.035,0.981,1.11,1.08,3.52,0.65,-1.06,1.0,1633,1633,1500,1500,16.42,0,3,1,1
334,127372104,1008,465,1473,-21,331,320,49,0.22705078125,0.71923828125,-0.01025390625,10.091463414634147,9.756097560975611,1.4939024390243905,-0.221,-0.006,0.939,0.23,-2.78,5.69,0.65,-1.06,1.01,1633,1633,1500,1500,14.33,0,3,1,1
335,127373113,1009,631,1766,-2525,349,50,69,0.30810546875,0.8623046875,-1.23291015625,10.640243902439025,1.524390243902439,2.103658536585366,0.009,-0.054,0.927,-0.55,-5.54,4.38,0.65,-1.06,1.01,1633,1633,1500,1500,2.72,0,3,1,1
336,127374121,1008,304,2235,-3273,194,-269,-4,0.1484375,1.09130859375,-1.59814453125,5.914634146341464,-8.201219512195122,-0.12195121951219513,0.261,-0.068,0.953,-0.33,-5.8,0.26,0.65,-1.08,1.01,1633,1633,1500,1500,14.64,0,3,1,1
337,127375129,1008,-147,2666,-1517,-75,-416,-51,-0.07177734375,1.3017578125,-0.74072265625,-2.2865853658536586,-12.682926829268293,-1.5548780487804879,0.337,-0.046,1.008,0.28,-3.22,-3.98,0.65,-1.09,1.01,1633,1633,1500,1500,17.52,0,3,1,1
338,127376138,1009,-484,2367,741,-264,-282,-15,-0.236328125,1.15576171875,0.36181640625,-8.048780487804878,-8.597560975609756,-0.4573170731707317,0.226,-0.001,1.031,0.33,0.41,-5.43,0.65,-1.09,1.0,1633,1633,1500,1500,11.31,0,3,1,1
339,127377146,1008,-432,1641,2136,-200,-36,5,-0.2109375,0.80126953125,1.04296875,-6.097560975609756,-1.0975609756097562,0.15243902439024393,0.025,0.031,0.995,0.16,2.18,-3.89,0.65,-1.09,1.0,1633,1633,1500,1500,2.51,0,3,1,1
340,127378154,1008,316,1424,2036,25,180,11,0.154296875,0.6953125,0.994140625,0.7621951219512195,5.487804878048781,0.3353658536585366,-0.136,0.002,0.947,0.0,1.06,-0.67,0.65,-1.09,1.0,1633,1633,1500,1500,9.33,0,3,1,1
341,127379163,1009,725,1895,191,215,279,55,0.35400390625,0.92529296875,0.09326171875,6.5548780487804885,8.506097560975611,1.676829268292683,-0.129,-0.054,0.944,-0.57,-1.61,2.48,0.65,-1.08,1.0,1633,1633,1500,1500,9.28,0,3,1,1
342,127380171,1008,191,2314,-1705,264,150,35,0.09326171875,1.1298828125,-0.83251953125,8.048780487804878,4.573170731707317,1.0670731707317074,0.022,-0.06,0.973,-0.74,-3.89,3.27,0.65,-1.09,1.01,1633,1633,1500,1500,2.9,0,3,1,1
343,127381179,1008,-166,2212,-1907,99,-99,-58,-0.0810546875,1.080078125,-0.93115234375,3.0182926829268295,-3.0182926829268295,-1.7682926829268295,0.166,-0.037,0.99,0.08,-3.73,1.25,0.65,-1.1,1.01,1633,1633,1500,1500,8.61,0,3,1,1
344,127382188,1009,-225,2226,-671,-197,-243,-80,-0.10986328125,1.0869140625,-0.32763671875,-6.00609756097561,-7.408536585365854,-2.439024390243903,0.192,-0.014,1.005,0.86,-0.6,-1.55,0.65,-1.1,1.0,1633,1633,1500,1500,9.74,0,3,1,1
345,127383196,1008,-614,2432,694,-360,-211,-8,-0.2998046875,1.1875,0.3388671875,-10.975609756097562,-6.432926829268293,-0.24390243902439027,0.108,0.035,1.034,0.65,3.13,-3.1,0.65,-1.1,1.0,1633,1633,1500,1500,5.52,0,3,1,1
346,127384205,1009,-480,1988,1549,-242,-76,42,-0.234375,0.970703125,0.75634765625,-7.378048780487806,-2.3170731707317076,1.2804878048780488,-0.028,0.066,1.024,0.0,4.42,-2.75,0.65,-1.09,1.0,1633,1633,1500,1500,5.17,0,3,1,1
347,127385213,1008,619,1287,2104,-25,70,51,0.30224609375,0.62841796875,1.02734375,-0.7621951219512195,2.1341463414634148,1.5548780487804879,-0.187,0.008,0.961,-0.52,3.06,-1.02,0.65,-1.08,1.0,1633,1633,1500,1500,12.18,0,3,1,1
348,127386221,1008,1143,1664,1767,96,174,52,0.55810546875,0.8125,0.86279296875,2.9268292682926833,5.3048780487804885,1.5853658536585367,-0.294,-0.081,0.938,-0.88,0.92,1.17,0.65,-1.07,1.0,1632,1632,1500,1500,18.94,0,3,1,1
349,127387229,1008,554,2603,181,152,162,-6,0.2705078125,1.27099609375,0.08837890625,4.634146341463415,4.939024390243903,-0.1829268292682927,-0.261,-0.111,0.99,-0.53,-1.06,2.52,0.66,-1.07,1.0,1632,1632,1500,1500,16.8,0,3,1,1
350,127388237,1008,-73,2621,-1434,158,48,-94,-0.03564453125,1.27978515625,-0.7001953125,4.817073170731708,1.4634146341463417,-2.8658536585365857,-0.109,-0.088,1.036,0.59,-2.45,2.25,0.66,-1.07,1.0,1633,1633,1500,1500,8.22,0,3,1,1
351,127389245,1008,-611,2136,-1697,97,-31,-123,-0.29833984375,1.04296875,-0.82861328125,2.957317073170732,-0.9451219512195123,-3.7500000000000004,0.039,-0.026,1.037,1.64,-2.75,1.27,0.66,-1.07,1.01,1633,1633,1500,1500,1.38,0,3,1,1
352,127390253,1008,-1125,2014,-618,-17,-55,-69,-0.54931640625,0.9833984375,-0.3017578125,-0.5182926829268293,-1.676829268292683,-2.103658536585366,0.081,0.064,1.029,1.78,-1.79,0.37,0.65,-1.07,1.01,1633,1633,1500,1500,5.45,0,3,1,1
353,127391262,1009,-807,1841,189,-87,-85,26,-0.39404296875,0.89892578125,0.09228515625,-2.6524390243902443,-2.5914634146341466,0.7926829268292683,0.053,0.116,1.008,0.91,-0.43,-0.53,0.65,-1.08,1.01,1633,1633,1500,1500,7.52,0,3,1,1
354,127392270,1008,511,1381,-11,2,-128,97,0.24951171875,0.67431640625,-0.00537109375,0.06097560975609757,-3.9024390243902443,2.957317073170732,0.045,0.058,0.955,-0.38,-0.44,-1.57,0.65,-1.08,1.0,1633,1633,1500,1500,4.49,0,3,1,1
355,127393277,1007,1451,1392,-512,149,-179,106,0.70849609375,0.6796875,-0.25,4.5426829268292686,-5.457317073170732,3.231707317073171,0.078,-0.062,0.911,-1.34,-1.94,-2.78,0.65,-1.08,1.0,1633,1633,1500,1500,5.04,0,3,1,1
356,127394286,1009,958,2256,-829,157,-176,27,0.4677734375,1.1015625,-0.40478515625,4.786585365853659,-5.365853658536586,0.8231707317073171,0.13,-0.127,0.941,-1.17,-3.02,-3.56,0.65,-1.09,1.0,1633,1633,1500,1500,9.71,0,3,1,1
357,127395294,1008,-141,2976,-745,-24,-67,-79,-0.06884765625,1.453125,-0.36376953125,-0.7317073170731708,-2.0426829268292686,-2.408536585365854,0.167,-0.096,1.022,0.01,-1.9,-2.96,0.66,-1.09,0.99,1633,1633,1500,1500,9.41,0,3,1,1
358,127396302,1008,-962,2782,-311,-210,70,-124,-0.4697265625,1.3583984375,-0.15185546875,-6.402439024390245,2.1341463414634148,-3.780487804878049,0.164,-0.006,1.076,1.26,0.74,-1.17,0.65,-1.1,0.99,1633,1633,1500,1500,7.62,0,3,1,1
359,127397311,1009,-1409,2267,324,-244,153,-101,-0.68798828125,1.10693359375,0.158203125,-7.439024390243903,4.664634146341464,-3.079268292682927,0.113,0.103,1.08,1.86,2.85,0.86,0.65,-1.1,0.99,1633,1633,1500,1500,7.83,0,3,1,1
360,127398319,1008,-999,1795,850,-222,116,-14,-0.48779296875,0.87646484375,0.4150390625,-6.7682926829268295,3.536585365853659,-0.426829268292683,0.029,0.164,1.048,1.37,4.02,1.84,0.64,-1.09,1.0,1633,1633,1500,1500,9.6,0,3,1,1
361,127399327,1008,512,1253,854,-182,-60,93,0.25,0.61181640625,0.4169921875,-5.548780487804878,-1.829268292682927,2.8353658536585367,-0.041,0.098,0.979,-0.03,4.4,0.7,0.64,-1.09,1.0,1633,1633,1500,1500,7.3,0,3,1,1
362,127400336,1009,1907,1110,221,-42,-193,124,0.93115234375,0.5419921875,0.10791015625,-1.2804878048780488,-5.884146341463415,3.780487804878049,-0.051,-0.064,0.909,-1.29,3.22,-1.41,0.64,-1.08,1.0,1633,1633,1500,1500,5.51,0,3,1,1
363,127401344,1008,1735,1929,-515,131,-122,58,0.84716796875,0.94189453125,-0.25146484375,3.9939024390243905,-3.7195121951219514,1.7682926829268295,-0.003,-0.188,0.915,-1.46,0.68,-2.09,0.65,-1.08,0.99,1633,1633,1500,1500,11.08,0,3,1,1
364,127402352,1008,183,3053,-474,161,4,-53,0.08935546875,1.49072265625,-0.2314453125,4.908536585365854,0.12195121951219513,-1.6158536585365855,0.033,-0.172,1.006,-0.43,-1.32,-1.26,0.65,-1.08,0.99,1633,1633,1500,1500,9.13,0,3,1,1
365,127403361,1009,-1302,3112,126,30,64,-150,-0.6357421875,1.51953125,0.0615234375,0.9146341463414634,1.9512195121951221,-4.573170731707317,0.018,-0.044,1.087,1.23,-1.31,-0.1,0.65,-1.08,0.99,1633,1633,1500,1500,1.69,0,3,1,1
366,127404369,1008,-1699,2279,535,-101,126,-156,-0.82958984375,1.11279296875,0.26123046875,-3.079268292682927,3.8414634146341466,-4.75609756097561,-0.025,0.094,1.091,2.4,0.02,1.3,0.65,-1.08,0.99,1633,1633,1500,1500,6.09,0,3,1,1
367,127405377,1008,-1101,1560,639,-138,131,-42,-0.53759765625,0.76171875,0.31201171875,-4.207317073170732,3.9939024390243905,-1.2804878048780488,-0.071,0.164,1.039,2.02,1.28,2.29,0.64,-1.08,1.0,1633,1633,1500,1500,10.84,0,3,1,1
368,127406386,1009,234,1060,665,-97,1,96,0.1142578125,0.517578125,0.32470703125,-2.957317073170732,0.030487804878048783,2.9268292682926833,-0.111,0.12,0.956,0.35,1.71,1.62,0.64,-1.07,1.0,1633,1633,1500,1500,10.94,0,3,1,1
369,127407394,1008,1694,984,402,-42,-148,149,0.8271484375,0.48046875,0.1962890625,-1.2804878048780488,-4.51219512195122,4.5426829268292686,-0.124,-0.03,0.881,-1.28,1.43,-0.34,0.64,-1.06,1.0,1633,1633,1500,1500,9.23,0,3,1,1
370,127408403,1009,1829,1811,-477,16,-137,111,0.89306640625,0.88427734375,-0.23291015625,0.48780487804878053,-4.176829268292683,3.3841463414634148,-0.068,-0.166,0.881,-1.99,0.66,-1.53,0.65,-1.06,1.0,1633,1633,1500,1500,11.43,0,3,1,1
371,127409410,1007,308,2977,-1000,75,-12,1,0.150390625,1.45361328125,-0.48828125,2.2865853658536586,-0.3658536585365854,0.030487804878048783,0.02,-0.164,0.972,-1.34,-0.45,-1.05,0.65,-1.06,0.99,1633,1633,1500,1500,8.94,0,3,1,1
372,127410419,1009,-1370,3296,-344,35,104,-135,-0.6689453125,1.609375,-0.16796875,1.0670731707317074,3.1707317073170733,-4.115853658536586,0.043,-0.032,1.073,0.47,-0.79,0.44,0.65,-1.06,0.99,1633,1633,1500,1500,1.64,0,3,1,1
373,127411427,1008,-1883,2663,268,-76,248,-175,-0.91943359375,1.30029296875,0.130859375,-2.3170731707317076,7.560975609756098,-5.335365853658537,0.015,0.118,1.109,2.09,0.11,2.91,0.65,-1.06,1.0,1633,1633,1500,1500,6.77,0,3,1,1
374,127412436,1009,-1266,1776,-54,-115,268,-63,-0.6181640625,0.8671875,-0.0263671875,-3.50609756097561,8.170731707317074,-1.9207317073170733,0.017,0.197,1.07,2.02,1.11,4.75,0.64,-1.06,1.0,1633,1633,1500,1500,11.13,0,3,1,1
375,127413444,1008,140,989,-440,-40,19,81,0.068359375,0.48291015625,-0.21484375,-1.2195121951219514,0.5792682926829269,2.4695121951219514,0.048,0.155,0.977,0.51,1.01,3.44,0.63,-1.06,1.01,1633,1633,1500,1500,9.85,0,3,1,1
376,127414451,1007,1746,809,-706,58,-258,161,0.8525390625,0.39501953125,-0.3447265625,1.7682926829268295,-7.865853658536586,4.908536585365854,0.095,-0.004,0.885,-1.3,-0.04,-0.25,0.64,-1.06,1.01,1633,1633,1500,1500,5.12,0,3,1,1
377,127415459,1008,2104,1527,-1092,78,-338,164,1.02734375,0.74560546875,-0.533203125,2.378048780487805,-10.30487804878049,5.0,0.165,-0.166,0.863,-2.54,-0.95,-3.52,0.64,-1.07,1.0,1633,1633,1500,1500,14.0,0,3,1,1
378,127416468,1009,724,2489,-765,23,-227,64,0.353515625,1.21533203125,-0.37353515625,0.701219512195122,-6.920731707317074,1.9512195121951221,0.198,-0.196,0.918,-2.35,-1.0,-4.57,0.65,-1.08,1.0,1633,1633,1500,1500,15.67,0,3,1,1
379,127417476,1008,-1022,3109,270,-81,22,-96,-0.4990234375,1.51806640625,0.1318359375,-2.4695121951219514,0.6707317073170732,-2.9268292682926833,0.145,-0.085,1.013,-0.59,0.02,-2.73,0.65,-1.08,0.99,1633,1633,1500,1500,8.22,0,3,1,1
380,127418483,1007,-1726,2946,1077,-165,281,-155,-0.8427734375,1.4384765625,0.52587890625,-5.0304878048780495,8.567073170731708,-4.725609756097561,0.039,0.061,1.081,1.17,1.56,1.13,0.65,-1.08,1.0,1633,1633,1500,1500,4.03,0,3,1,1
381,127419492,1009,-1421,2029,1235,-149,343,-57,-0.69384765625,0.99072265625,0.60302734375,-4.5426829268292686,10.457317073170733,-1.7378048780487807,-0.062,0.161,1.066,1.35,2.43,4.33,0.64,-1.07,1.0,1633,1633,1500,1500,10.27,0,3,1,1
382,127420500,1008,-340,1200,482,-43,159,74,-0.166015625,0.5859375,0.2353515625,-1.3109756097560976,4.847560975609756,2.25609756097561,-0.089,0.162,0.99,0.14,1.92,4.59,0.64,-1.07,1.0,1633,1633,1500,1500,11.73,0,3,1,1
383,127421509,1009,1251,1067,-830,78,-129,156,0.61083984375,0.52099609375,-0.4052734375,2.378048780487805,-3.932926829268293,4.75609756097561,-0.011,0.039,0.916,-1.5,0.35,1.83,0.64,-1.07,1.01,1633,1633,1500,1500,3.6,0,3,1,1
384,127422516,1007,1867,1692,-1498,124,-360,167,0.91162109375,0.826171875,-0.7314453125,3.780487804878049,-10.975609756097562,5.091463414634147,0.106,-0.111,0.901,-2.71,-1.16,-2.36,0.64,-1.07,1.0,1633,1633,1500,1500,8.48,0,3,1,1
385,127423525,1009,975,2478,-942,55,-409,64,0.47607421875,1.2099609375,-0.4599609375,1.676829268292683,-12.469512195121952,1.9512195121951221,0.162,-0.169,0.95,-2.46,-1.46,-5.65,0.65,-1.08,1.0,1633,1633,1500,1500,12.65,0,3,1,1
386,127424531,1006,-427,2934,307,-104,-221,-98,-0.20849609375,1.4326171875,0.14990234375,-3.1707317073170733,-6.737804878048781,-2.987804878048781,0.112,-0.109,1.027,-0.64,-0.04,-5.93,0.66,-1.08,0.99,1633,1633,1500,1500,7.47,0,3,1,1
387,127425539,1008,-1375,2857,1334,-199,96,-171,-0.67138671875,1.39501953125,0.6513671875,-6.067073170731708,2.9268292682926833,-5.213414634146342,-0.008,0.014,1.085,1.3,1.86,-2.88,0.65,-1.08,0.99,1633,1633,1500,1500,2.09,0,3,1,1
388,127426548,1009,-1401,2153,1570,-117,301,-97,-0.68408203125,1.05126953125,0.7666015625,-3.5670731707317076,9.176829268292684,-2.957317073170732,-0.128,0.12,1.08,1.85,2.3,1.23,0.65,-1.07,0.99,1633,1633,1500,1500,10.52,0,3,1,1
389,127427556,1008,-582,1418,798,39,236,28,-0.2841796875,0.6923828125,0.3896484375,1.1890243902439026,7.195121951219513,0.853658536585366,-0.169,0.146,1.018,0.93,1.0,3.31,0.64,-1.07,0.99,1633,1633,1500,1500,13.69,0,3,1,1
390,127428564,1008,841,1093,-867,142,-44,122,0.41064453125,0.53369140625,-0.42333984375,4.329268292682928,-1.3414634146341464,3.7195121951219514,-0.075,0.058,0.941,-0.62,-0.91,1.84,0.64,-1.06,1.0,1633,1633,1500,1500,7.05,0,3,1,1
391,127429573,1009,1639,1482,-2066,142,-371,150,0.80029296875,0.7236328125,-1.0087890625,4.329268292682928,-11.310975609756099,4.573170731707317,0.096,-0.077,0.907,-1.95,-2.18,-2.46,0.65,-1.07,0.99,1633,1633,1500,1500,6.53,0,3,1,1
392,127430581,1008,1047,2351,-1647,44,-517,74,0.51123046875,1.14794921875,-0.80419921875,1.3414634146341464,-15.76219512195122,2.25609756097561,0.208,-0.146,0.945,-2.06,-2.03,-6.82,0.65,-1.08,0.99,1633,1633,1500,1500,13.84,0,3,1,1
393,127431590,1009,-70,2771,-241,-101,-353,-58,-0.0341796875,1.35302734375,-0.11767578125,-3.079268292682927,-10.76219512195122,-1.7682926829268295,0.194,-0.117,1.009,-0.78,-0.45,-8.05,0.66,-1.08,0.98,1633,1633,1500,1500,11.41,0,3,1,1
394,127432598,1008,-1044,2665,1359,-188,-3,-149,-0.509765625,1.30126953125,0.66357421875,-5.731707317073171,-0.09146341463414635,-4.5426829268292686,0.058,-0.018,1.056,0.98,1.48,-5.3,0.65,-1.08,0.97,1633,1633,1500,1500,2.08,0,3,1,1
395,127433606,1008,-1350,2294,2111,-116,335,-121,-0.6591796875,1.1201171875,1.03076171875,-3.536585365853659,10.213414634146343,-3.689024390243903,-0.114,0.089,1.066,1.88,2.03,-0.02,0.65,-1.07,0.97,1633,1633,1500,1500,9.02,0,3,1,1
396,127434615,1009,-742,1703,950,72,451,6,-0.3623046875,0.83154296875,0.4638671875,2.1951219512195124,13.750000000000002,0.1829268292682927,-0.17,0.132,1.029,1.18,0.48,4.66,0.65,-1.07,0.98,1633,1633,1500,1500,13.09,0,3,1,1
397,127435623,1008,415,1182,-1148,222,220,113,0.20263671875,0.5771484375,-0.560546875,6.7682926829268295,6.707317073170732,3.4451219512195124,-0.054,0.079,0.957,-0.37,-2.07,5.43,0.64,-1.07,0.98,1633,1633,1500,1500,6.89,0,3,1,1
398,127436631,1008,1354,1364,-2228,203,-147,127,0.6611328125,0.666015625,-1.087890625,6.189024390243903,-4.481707317073171,3.8719512195121957,0.126,-0.038,0.911,-1.54,-3.58,2.2,0.65,-1.08,0.99,1633,1633,1500,1500,7.07,0,3,1,1
399,127437640,1009,1193,2321,-1633,-19,-334,69,0.58251953125,1.13330078125,-0.79736328125,-0.5792682926829269,-10.182926829268293,2.103658536585366,0.233,-0.124,0.946,-1.74,-2.32,-1.85,0.65,-1.08,0.98,1633,1633,1500,1500,14.36,0,3,1,1
400,127438648,1008,170,2833,-287,-248,-233,-21,0.0830078125,1.38330078125,-0.14013671875,-7.560975609756098,-7.103658536585367,-0.6402439024390244,0.218,-0.117,1.015,-0.95,0.85,-3.52,0.65,-1.09,0.98,1633,1633,1500,1500,12.48,0,3,1,1
401,127439656,1008,-804,2585,1165,-262,44,-111,-0.392578125,1.26220703125,0.56884765625,-7.987804878048781,1.3414634146341464,-3.3841463414634148,0.093,-0.036,1.054,0.49,3.1,-1.8,0.65,-1.09,0.98,1633,1633,1500,1500,4.2,0,3,1,1
402,127440665,1009,-1192,2287,2319,-104,343,-128,-0.58203125,1.11669921875,1.13232421875,-3.1707317073170733,10.457317073170733,-3.9024390243902443,-0.1,0.061,1.064,1.62,2.99,2.38,0.65,-1.08,0.98,1633,1633,1500,1500,7.6,0,3,1,1
403,127441673,1008,-777,1800,1614,94,480,-31,-0.37939453125,0.87890625,0.7880859375,2.8658536585365857,14.634146341463415,-0.9451219512195123,-0.209,0.111,1.035,1.39,0.9,6.56,0.65,-1.08,0.99,1633,1633,1500,1500,14.21,0,3,1,1
404,127442682,1009,307,1146,-922,260,273,83,0.14990234375,0.5595703125,-0.4501953125,7.926829268292684,8.323170731707318,2.530487804878049,-0.105,0.07,0.959,0.07,-2.18,7.24,0.64,-1.07,0.99,1633,1633,1500,1500,8.76,0,3,1,1
405,127443690,1008,1241,1193,-2656,291,-145,110,0.60595703125,0.58251953125,-1.296875,8.871951219512196,-4.420731707317073,3.353658536585366,0.117,-0.037,0.899,-1.08,-4.55,3.42,0.65,-1.08,1.0,1633,1633,1500,1500,6.56,0,3,1,1
406,127444698,1008,1127,2228,-1967,82,-425,71,0.55029296875,1.087890625,-0.96044921875,2.5,-12.957317073170733,2.164634146341464,0.25,-0.118,0.929,-1.45,-3.99,-1.96,0.65,-1.09,1.0,1633,1633,1500,1500,15.37,0,3,1,1
407,127445707,1009,130,3059,-90,-236,-403,10,0.0634765625,1.49365234375,-0.0439453125,-7.195121951219513,-12.286585365853659,0.30487804878048785,0.218,-0.109,1.019,-1.07,-0.38,-5.33,0.65,-1.1,0.99,1633,1633,1500,1500,12.21,0,3,1,1
408,127446715,1008,-729,2789,1334,-326,-123,-81,-0.35595703125,1.36181640625,0.6513671875,-9.939024390243903,-3.7500000000000004,-2.4695121951219514,0.08,-0.035,1.073,0.1,2.93,-4.71,0.65,-1.1,0.99,1633,1633,1500,1500,3.41,0,3,1,1
409,127447723,1008,-829,2091,2381,-167,279,-134,-0.40478515625,1.02099609375,1.16259765625,-5.091463414634147,8.506097560975611,-4.085365853658537,-0.116,0.034,1.065,1.42,3.52,-0.2,0.65,-1.09,0.99,1633,1633,1500,1500,7.77,0,3,1,1
410,127448732,1009,-509,1647,2400,19,530,-60,-0.24853515625,0.80419921875,1.171875,0.5792682926829269,16.158536585365855,-1.829268292682927,-0.284,0.068,1.023,1.55,2.02,5.35,0.65,-1.08,0.99,1633,1633,1500,1500,17.17,0,3,1,1
411,127449740,1008,92,1386,332,163,407,50,0.044921875,0.6767578125,0.162109375,4.969512195121951,12.408536585365855,1.524390243902439,-0.264,0.05,0.968,0.51,-0.44,7.8,0.65,-1.07,1.0,1633,1633,1500,1500,16.75,0,3,1,1
412,127450748,1008,886,1412,-2224,229,42,90,0.4326171875,0.689453125,-1.0859375,6.981707317073171,1.2804878048780488,2.7439024390243905,-0.05,-0.026,0.924,-0.57,-2.76,5.7,0.65,-1.07,1.0,1633,1633,1500,1500,4.32,0,3,1,1
413,127451757,1009,972,2069,-2789,160,-286,58,0.474609375,1.01025390625,-1.36181640625,4.878048780487806,-8.719512195121952,1.7682926829268295,0.173,-0.097,0.938,-0.98,-3.6,0.96,0.65,-1.08,1.01,1633,1633,1500,1500,10.72,0,3,1,1
414,127452765,1008,232,2814,-1176,-35,-400,-8,0.11328125,1.3740234375,-0.57421875,-1.0670731707317074,-12.195121951219512,-0.24390243902439027,0.236,-0.1,1.007,-0.58,-2.17,-3.34,0.65,-1.09,1.0,1633,1633,1500,1500,13.08,0,3,1,1
415,127453772,1007,-453,2816,657,-217,-265,-59,-0.22119140625,1.375,0.32080078125,-6.615853658536586,-8.079268292682928,-1.7987804878048783,0.148,-0.049,1.065,0.2,0.63,-4.84,0.65,-1.09,1.0,1633,1633,1500,1500,7.11,0,3,1,1
416,127454780,1008,-705,2183,1466,-199,12,-77,-0.34423828125,1.06591796875,0.7158203125,-6.067073170731708,0.3658536585365854,-2.347560975609756,0.011,0.013,1.065,0.91,2.31,-3.01,0.65,-1.09,0.99,1633,1633,1500,1500,1.45,0,3,1,1
417,127455789,1009,-429,1464,1290,27,257,-42,-0.20947265625,0.71484375,0.6298828125,0.8231707317073171,7.835365853658537,-1.2804878048780488,-0.09,0.044,1.009,1.03,1.13,0.7,0.65,-1.08,1.0,1633,1633,1500,1500,6.96,0,3,1,1
418,127456797,1008,253,1315,180,227,276,30,0.12353515625,0.64208984375,0.087890625,6.920731707317074,8.414634146341465,0.9146341463414634,-0.089,0.017,0.951,0.37,-1.69,3.36,0.65,-1.08,1.0,1633,1633,1500,1500,6.71,0,3,1,1
419,127457805,1008,767,1656,-1325,201,58,68,0.37451171875,0.80859375,-0.64697265625,6.128048780487806,1.7682926829268295,2.073170731707317,0.026,-0.044,0.928,-0.45,-3.3,2.92,0.65,-1.09,1.0,1633,1633,1500,1500,2.16,0,3,1,1
420,127458814,1009,615,1993,-2094,12,-208,40,0.30029296875,0.97314453125,-1.0224609375,0.3658536585365854,-6.341463414634147,1.2195121951219514,0.184,-0.085,0.935,-0.71,-2.45,-0.09,0.65,-1.09,1.0,1633,1633,1500,1500,11.0,0,3,1,1
421,127459822,1008,-116,2537,-1058,-184,-332,-20,-0.056640625,1.23876953125,-0.5166015625,-5.609756097560976,-10.121951219512196,-0.6097560975609757,0.237,-0.062,0.983,-0.27,0.11,-3.35,0.65,-1.1,1.0,1633,1633,1500,1500,12.79,0,3,1,1
422,127460830,1008,-643,2750,1265,-324,-195,-32,-0.31396484375,1.3427734375,0.61767578125,-9.878048780487806,-5.945121951219512,-0.9756097560975611,0.101,-0.002,1.04,0.13,3.24,-4.13,0.65,-1.1,0.99,1633,1633,1500,1500,4.51,0,3,1,1
423,127461837,1007,-481,2023,2674,-312,71,12,-0.23486328125,0.98779296875,1.3056640625,-9.51219512195122,2.164634146341464,0.3658536585365854,-0.121,0.034,1.032,-0.04,5.21,-1.94,0.65,-1.09,0.99,1633,1633,1500,1500,8.23,0,3,1,1
424,127462845,1008,204,1369,1974,-41,247,34,0.099609375,0.66845703125,0.9638671875,-1.25,7.5304878048780495,1.0365853658536586,-0.255,0.013,0.974,-0.38,3.75,1.31,0.65,-1.08,0.99,1633,1633,1500,1500,15.83,0,3,1,1
425,127463854,1009,826,1683,-17,306,285,34,0.4033203125,0.82177734375,-0.00830078125,9.329268292682928,8.689024390243903,1.0365853658536586,-0.213,-0.052,0.95,-0.6,-0.75,3.86,0.65,-1.07,1.0,1633,1633,1500,1500,13.94,0,3,1,1
426,127464862,1008,693,2199,-1801,428,165,29,0.33837890625,1.07373046875,-0.87939453125,13.04878048780488,5.0304878048780495,0.8841463414634148,-0.039,-0.097,0.97,-0.7,-4.99,4.34,0.66,-1.08,1.0,1633,1633,1500,1500,6.14,0,3,1,1
427,127465870,1008,-15,2109,-2564,264,-94,-14,-0.00732421875,1.02978515625,-1.251953125,8.048780487804878,-2.8658536585365857,-0.426829268292683,0.164,-0.081,0.979,-0.33,-6.15,2.01,0.66,-1.09,1.0,1633,1633,1500,1500,9.37,0,3,1,1
428,127466879,1009,-669,2211,-1950,-35,-337,-76,-0.32666015625,1.07958984375,-0.9521484375,-1.0670731707317074,-10.27439024390244,-2.3170731707317076,0.289,-0.016,0.995,0.54,-3.86,-2.0,0.66,-1.1,1.0,1633,1633,1500,1500,15.15,0,3,1,1
429,127467887,1008,-910,2626,-192,-248,-370,-60,-0.4443359375,1.2822265625,-0.09375,-7.560975609756098,-11.28048780487805,-1.829268292682927,0.258,0.056,1.04,0.96,-0.17,-5.02,0.66,-1.1,1.0,1633,1633,1500,1500,13.38,0,3,1,1
430,127468895,1008,-613,2090,1500,-242,-149,31,-0.29931640625,1.0205078125,0.732421875,-7.378048780487806,-4.5426829268292686,0.9451219512195123,0.101,0.095,1.037,0.32,2.21,-4.77,0.65,-1.1,0.99,1633,1633,1500,1500,7.38,0,3,1,1
431,127469904,1009,284,1178,2414,-120,114,71,0.138671875,0.5751953125,1.1787109375,-3.658536585365854,3.4756097560975614,2.164634146341464,-0.101,0.057,0.964,-0.51,2.56,-1.92,0.65,-1.1,0.99,1633,1633,1500,1500,8.2,0,3,1,1
432,127470912,1008,1205,1534,1903,-35,255,55,0.58837890625,0.7490234375,0.92919921875,-1.0670731707317074,7.77439024390244,1.676829268292683,-0.232,-0.044,0.93,-0.91,1.93,1.4,0.65,-1.09,0.99,1633,1633,1500,1500,15.29,0,3,1,1
433,127471921,1009,1033,2511,-70,41,291,31,0.50439453125,1.22607421875,-0.0341796875,1.25,8.871951219512196,0.9451219512195123,-0.19,-0.117,0.977,-0.93,0.73,3.99,0.66,-1.08,1.0,1633,1633,1500,1500,13.53,0,3,1,1
434,127472929,1008,18,2548,-1589,105,196,-31,0.0087890625,1.244140625,-0.77587890625,3.2012195121951224,5.975609756097562,-0.9451219512195123,-0.037,-0.1,1.019,-0.31,-0.71,4.74,0.66,-1.08,1.0,1633,1633,1500,1500,5.88,0,3,1,1
435,127473937,1008,-731,2200,-1608,48,40,-114,-0.35693359375,1.07421875,-0.78515625,1.4634146341463417,1.2195121951219514,-3.4756097560975614,0.093,-0.027,1.028,0.94,-1.09,3.65,0.66,-1.08,1.0,1633,1633,1500,1500,4.19,0,3,1,1
436,127474946,1009,-919,2329,-752,-103,-42,-112,-0.44873046875,1.13720703125,-0.3671875,-3.1402439024390247,-1.2804878048780488,-3.414634146341464,0.136,0.047,1.045,1.76,0.18,2.08,0.66,-1.09,1.01,1633,1633,1500,1500,7.15,0,3,1,1
437,127475954,1008,-669,2075,302,-196,-86,-3,-0.32666015625,1.01318359375,0.1474609375,-5.975609756097562,-2.6219512195121952,-0.09146341463414635,0.091,0.092,1.04,1.19,1.99,0.59,0.65,-1.09,1.01,1633,1633,1500,1500,6.93,0,3,1,1
438,127476962,1008,160,1284,1219,-126,-147,83,0.078125,0.626953125,0.59521484375,-3.8414634146341466,-4.481707317073171,2.530487804878049,-0.017,0.065,0.974,-0.05,2.47,-1.01,0.65,-1.08,1.01,1633,1633,1500,1500,4.95,0,3,1,1
439,127477971,1009,1191,1206,1457,35,-152,87,0.58154296875,0.5888671875,0.71142578125,1.0670731707317074,-4.634146341463415,2.6524390243902443,-0.127,-0.037,0.913,-0.93,1.16,-2.13,0.65,-1.08,1.0,1633,1633,1500,1500,9.18,0,3,1,1
440,127478979,1008,1203,2138,454,160,-74,53,0.58740234375,1.0439453125,0.2216796875,4.878048780487806,-2.25609756097561,1.6158536585365855,-0.142,-0.124,0.934,-1.16,-0.99,-2.08,0.66,-1.07,1.0,1633,1633,1500,1500,11.9,0,3,1,1
441,127479987,1008,107,2869,-880,200,24,-28,0.05224609375,1.40087890625,-0.4296875,6.097560975609756,0.7317073170731708,-0.853658536585366,-0.051,-0.113,1.008,-0.49,-2.83,-1.05,0.66,-1.08,1.0,1633,1633,1500,1500,7.0,0,3,1,1
442,127480995,1008,-920,2660,-1314,97,92,-122,-0.44921875,1.298828125,-0.6416015625,2.957317073170732,2.804878048780488,-3.7195121951219514,0.058,-0.024,1.054,0.9,-3.0,0.32,0.66,-1.08,1.0,1633,1633,1500,1500,2.18,0,3,1,1
443,127482004,1009,-1312,2269,-682,-103,99,-135,-0.640625,1.10791015625,-0.3330078125,-3.1402439024390247,3.0182926829268295,-4.115853658536586,0.101,0.081,1.062,1.97,-1.08,1.31,0.66,-1.08,1.0,1633,1633,1500,1500,6.67,0,3,1,1
444,127483012,1008,-987,2026,151,-244,22,-38,-0.48193359375,0.9892578125,0.07373046875,-7.439024390243903,0.6707317073170732,-1.1585365853658538,0.074,0.144,1.051,1.69,1.63,1.18,0.65,-1.08,1.0,1633,1633,1500,1500,8.99,0,3,1,1
445,127484020,1008,240,1453,294,-210,-132,80,0.1171875,0.70947265625,0.1435546875,-6.402439024390245,-4.024390243902439,2.439024390243903,0.039,0.103,0.996,0.3,3.09,-0.47,0.65,-1.08,1.0,1633,1633,1500,1500,6.67,0,3,1,1
446,127485029,1009,1637,1025,-41,-43,-258,127,0.79931640625,0.50048828125,-0.02001953125,-1.3109756097560976,-7.865853658536586,3.8719512195121957,0.036,-0.039,0.918,-1.1,2.36,-2.85,0.65,-1.08,1.0,1633,1633,1500,1500,2.18,0,3,1,1
447,127486037,1008,1724,1564,-633,110,-237,96,0.841796875,0.763671875,-0.30908203125,3.353658536585366,-7.225609756097562,2.9268292682926833,0.079,-0.167,0.893,-1.71,0.32,-4.23,0.65,-1.08,1.0,1633,1633,1500,1500,10.67,0,3,1,1
448,127487045,1008,332,2703,-725,126,-132,-7,0.162109375,1.31982421875,-0.35400390625,3.8414634146341466,-4.024390243902439,-0.2134146341463415,0.123,-0.166,0.961,-1.07,-1.2,-4.07,0.66,-1.08,0.99,1633,1633,1500,1500,10.98,0,3,1,1
449,127488053,1008,-1183,3245,163,-31,-20,-126,-0.57763671875,1.58447265625,0.07958984375,-0.9451219512195123,-0.6097560975609757,-3.8414634146341466,0.091,-0.048,1.06,0.55,-0.61,-2.82,0.66,-1.09,0.99,1633,1633,1500,1500,4.28,0,3,1,1
450,127489061,1008,-1659,2663,574,-182,96,-150,-0.81005859375,1.30029296875,0.2802734375,-5.548780487804878,2.9268292682926833,-4.573170731707317,0.032,0.087,1.098,1.89,1.31,-0.81,0.66,-1.09,0.99,1633,1633,1500,1500,5.27,0,3,1,1
451,127490070,1009,-1166,1704,271,-171,108,-54,-0.5693359375,0.83203125,0.13232421875,-5.213414634146342,3.2926829268292686,-1.6463414634146343,0.006,0.164,1.056,1.8,2.48,0.64,0.65,-1.08,0.99,1633,1633,1500,1500,9.54,0,3,1,1
452,127491078,1008,6,1135,318,-82,-3,75,0.0029296875,0.55419921875,0.1552734375,-2.5,-0.09146341463414635,2.2865853658536586,-0.019,0.137,0.976,0.42,2.35,0.48,0.64,-1.08,0.99,1633,1633,1500,1500,8.96,0,3,1,1
453,127492086,1008,1469,1106,216,-24,-129,155,0.71728515625,0.5400390625,0.10546875,-0.7317073170731708,-3.932926829268293,4.725609756097561,-0.033,0.002,0.907,-1.3,1.68,-0.9,0.65,-1.08,0.99,1633,1633,1500,1500,3.27,0,3,1,1
454,127493094,1008,1859,1684,-427,3,-218,141,0.90771484375,0.822265625,-0.20849609375,0.09146341463414635,-6.646341463414635,4.298780487804878,0.005,-0.142,0.893,-2.31,0.95,-2.73,0.65,-1.07,0.98,1633,1633,1500,1500,8.42,0,3,1,1
455,127494102,1008,687,2701,-574,33,-224,23,0.33544921875,1.31884765625,-0.2802734375,1.0060975609756098,-6.829268292682928,0.701219512195122,0.048,-0.172,0.961,-1.77,0.16,-4.01,0.66,-1.08,0.98,1633,1633,1500,1500,9.7,0,3,1,1
456,127495111,1009,-861,3267,101,5,-115,-119,-0.42041015625,1.59521484375,0.04931640625,0.15243902439024393,-3.50609756097561,-3.628048780487805,0.033,-0.078,1.061,0.02,-0.07,-3.76,0.66,-1.08,0.98,1633,1633,1500,1500,3.65,0,3,1,1
457,127496119,1008,-1733,2747,783,-77,86,-167,-0.84619140625,1.34130859375,0.38232421875,-2.347560975609756,2.6219512195121952,-5.091463414634147,-0.032,0.067,1.106,1.71,0.6,-1.53,0.66,-1.07,0.98,1633,1633,1500,1500,5.01,0,3,1,1
458,127497127,1008,-1600,1905,843,-100,240,-90,-0.78125,0.93017578125,0.41162109375,-3.048780487804878,7.317073170731708,-2.7439024390243905,-0.092,0.181,1.078,2.04,1.29,1.51,0.65,-1.07,0.98,1633,1633,1500,1500,11.79,0,3,1,1
459,127498136,1009,-379,1351,237,-54,183,44,-0.18505859375,0.65966796875,0.11572265625,-1.6463414634146343,5.579268292682928,1.3414634146341464,-0.096,0.181,1.011,0.9,1.27,2.95,0.64,-1.06,0.98,1633,1633,1500,1500,12.6,0,3,1,1
460,127499144,1008,1384,981,-474,7,-52,152,0.67578125,0.47900390625,-0.2314453125,0.2134146341463415,-1.5853658536585367,4.634146341463415,-0.044,0.045,0.927,-0.95,0.64,1.52,0.64,-1.06,0.98,1633,1633,1500,1500,5.15,0,3,1,1
461,127500153,1009,2175,1289,-729,16,-269,172,1.06201171875,0.62939453125,-0.35595703125,0.48780487804878053,-8.201219512195122,5.2439024390243905,0.019,-0.129,0.88,-2.39,0.13,-1.64,0.65,-1.06,0.98,1633,1633,1500,1500,7.75,0,3,1,1
462,127501161,1008,1220,2330,-563,-25,-282,77,0.595703125,1.1376953125,-0.27490234375,-0.7621951219512195,-8.597560975609756,2.347560975609756,0.059,-0.203,0.92,-2.38,0.21,-3.88,0.66,-1.06,0.98,1633,1633,1500,1500,12.09,0,3,1,1
463,127502169,1008,-525,3106,45,-64,-62,-80,-0.25634765625,1.5166015625,0.02197265625,-1.9512195121951221,-1.8902439024390245,-2.439024390243903,0.046,-0.13,1.015,-0.77,0.66,-3.12,0.66,-1.06,0.97,1633,1633,1500,1500,6.86,0,3,1,1
464,127503177,1008,-1617,2948,802,-57,281,-172,-0.78955078125,1.439453125,0.3916015625,-1.7378048780487807,8.567073170731708,-5.2439024390243905,-0.022,0.015,1.082,1.22,0.89,0.87,0.66,-1.06,0.97,1633,1633,1500,1500,2.7,0,3,1,1
465,127504185,1008,-1566,2118,645,33,514,-113,-0.7646484375,1.0341796875,0.31494140625,1.0060975609756098,15.670731707317074,-3.4451219512195124,-0.069,0.133,1.074,1.96,0.12,5.9,0.65,-1.06,0.98,1633,1633,1500,1500,9.09,0,3,1,1
466,127505193,1008,-718,1348,-334,121,394,31,-0.3505859375,0.658203125,-0.1630859375,3.689024390243903,12.01219512195122,0.9451219512195123,-0.032,0.168,1.008,0.98,-1.28,8.03,0.65,-1.06,0.99,1633,1633,1500,1500,10.54,0,3,1,1
467,127506202,1009,738,1046,-1340,125,8,151,0.3603515625,0.5107421875,-0.654296875,3.810975609756098,0.24390243902439027,4.603658536585367,0.076,0.084,0.929,-0.89,-2.26,5.51,0.65,-1.06,0.99,1633,1633,1500,1500,6.87,0,3,1,1
468,127507210,1008,1789,1397,-1930,54,-345,188,0.87353515625,0.68212890625,-0.9423828125,1.6463414634146343,-10.51829268292683,5.731707317073171,0.213,-0.067,0.89,-2.51,-2.18,0.24,0.65,-1.07,0.99,1633,1633,1500,1500,12.93,0,3,1,1
469,127508219,1009,1303,2243,-1125,-81,-417,108,0.63623046875,1.09521484375,-0.54931640625,-2.4695121951219514,-12.713414634146343,3.2926829268292686,0.267,-0.157,0.923,-2.78,-0.76,-4.0,0.66,-1.08,0.99,1633,1633,1500,1500,17.32,0,3,1,1
470,127509227,1008,-72,2907,577,-203,-127,-42,-0.03515625,1.41943359375,0.28173828125,-6.189024390243903,-3.8719512195121957,-1.2804878048780488,0.18,-0.127,1.001,-1.43,1.43,-3.87,0.66,-1.08,0.99,1633,1633,1500,1500,11.15,0,3,1,1
471,127510235,1008,-1207,2915,1676,-212,276,-150,-0.58935546875,1.42333984375,0.818359375,-6.463414634146342,8.414634146341465,-4.573170731707317,0.021,-0.013,1.068,0.56,2.98,0.32,0.66,-1.08,0.99,1633,1633,1500,1500,0.09,0,3,1,1
472,127511244,1009,-1555,2378,1942,-119,468,-135,-0.75927734375,1.1611328125,0.9482421875,-3.628048780487805,14.26829268292683,-4.115853658536586,-0.132,0.109,1.083,1.74,3.06,5.07,0.66,-1.07,0.99,1633,1633,1500,1500,10.25,0,3,1,1
473,127512252,1008,-901,1779,852,5,371,-18,-0.43994140625,0.86865234375,0.416015625,0.15243902439024393,11.310975609756099,-0.5487804878048781,-0.177,0.161,1.049,1.34,1.85,7.24,0.65,-1.07,1.0,1633,1633,1500,1500,14.12,0,3,1,1
474,127513260,1008,546,1218,-1259,115,29,106,0.2666015625,0.5947265625,-0.61474609375,3.50609756097561,0.8841463414634148,3.231707317073171,-0.051,0.093,0.977,-0.19,-0.06,5.2,0.65,-1.06,1.0,1633,1633,1500,1500,7.36,0,3,1,1
475,127514269,1009,1686,1120,-2128,158,-379,153,0.8232421875,0.546875,-1.0390625,4.817073170731708,-11.55487804878049,4.664634146341464,0.121,-0.051,0.908,-1.69,-1.78,-0.31,0.65,-1.07,1.0,1633,1633,1500,1500,7.03,0,3,1,1
476,127515276,1007,1527,1985,-1221,51,-540,106,0.74560546875,0.96923828125,-0.59619140625,1.5548780487804879,-16.463414634146343,3.231707317073171,0.196,-0.161,0.918,-2.21,-1.84,-5.62,0.66,-1.08,1.0,1633,1633,1500,1500,14.26,0,3,1,1
477,127516284,1008,383,2786,42,-132,-380,-2,0.18701171875,1.3603515625,0.0205078125,-4.024390243902439,-11.585365853658537,-0.06097560975609757,0.162,-0.165,0.988,-1.46,-0.01,-7.53,0.66,-1.08,0.99,1633,1633,1500,1500,11.99,0,3,1,1
478,127517290,1006,-940,2904,1328,-199,-48,-133,-0.458984375,1.41796875,0.6484375,-6.067073170731708,-1.4634146341463417,-4.0548780487804885,0.033,-0.066,1.056,0.37,1.88,-5.41,0.66,-1.08,0.98,1633,1633,1500,1500,3.03,0,3,1,1
479,127518299,1009,-1461,2633,2258,-115,351,-182,-0.71337890625,1.28564453125,1.1025390625,-3.50609756097561,10.701219512195124,-5.548780487804878,-0.146,0.057,1.092,2.09,2.29,0.06,0.66,-1.07,0.98,1633,1633,1500,1500,9.44,0,3,1,1
480,127519307,1008,-916,1845,1527,25,541,-71,-0.447265625,0.90087890625,0.74560546875,0.7621951219512195,16.493902439024392,-2.164634146341464,-0.241,0.118,1.062,2.11,1.14,5.64,0.65,-1.06,0.99,1633,1633,1500,1500,15.49,0,3,1,1
481,127520315,1008,83,980,-564,156,281,73,0.04052734375,0.478515625,-0.275390625,4.75609756097561,8.567073170731708,2.225609756097561,-0.159,0.093,0.969,0.65,-0.96,6.71,0.65,-1.06,1.0,1633,1633,1500,1500,12.06,0,3,1,1
482,127521324,1009,1092,1026,-2351,207,-162,132,0.533203125,0.5009765625,-1.14794921875,6.310975609756098,-4.939024390243903,4.024390243902439,0.047,-0.005,0.895,-0.91,-2.88,2.9,0.65,-1.06,1.0,1633,1633,1500,1500,2.01,0,3,1,1
483,127522332,1008,1290,2013,-2500,100,-443,117,0.6298828125,0.98291015625,-1.220703125,3.048780487804878,-13.506097560975611,3.5670731707317076,0.233,-0.104,0.909,-1.81,-3.07,-2.5,0.66,-1.07,1.0,1633,1633,1500,1500,14.5,0,3,1,1
484,127523340,1008,406,2743,-922,-103,-462,32,0.1982421875,1.33935546875,-0.4501953125,-3.1402439024390247,-14.085365853658537,0.9756097560975611,0.268,-0.119,0.977,-1.53,-1.12,-6.28,0.66,-1.08,0.99,1633,1633,1500,1500,15.48,0,3,1,1
485,127524348,1008,-595,2752,965,-232,-187,-96,-0.29052734375,1.34375,0.47119140625,-7.073170731707318,-5.701219512195123,-2.9268292682926833,0.15,-0.054,1.035,-0.05,1.48,-6.0,0.66,-1.08,0.99,1633,1633,1500,1500,7.57,0,3,1,1
486,127525356,1008,-1035,2504,2057,-200,225,-146,-0.50537109375,1.22265625,1.00439453125,-6.097560975609756,6.859756097560976,-4.451219512195122,-0.032,0.034,1.065,1.44,2.89,-1.61,0.66,-1.08,0.98,1633,1633,1500,1500,3.78,0,3,1,1
487,127526364,1008,-914,1908,1877,-12,440,-63,-0.4462890625,0.931640625,0.91650390625,-0.3658536585365854,13.414634146341465,-1.9207317073170733,-0.172,0.099,1.044,1.59,1.91,3.5,0.65,-1.07,0.99,1633,1633,1500,1500,12.08,0,3,1,1
488,127527373,1009,-139,1188,152,216,316,51,-0.06787109375,0.580078125,0.07421875,6.585365853658537,9.634146341463415,1.5548780487804879,-0.156,0.094,0.97,0.53,-1.05,5.63,0.65,-1.07,0.99,1633,1633,1500,1500,11.96,0,3,1,1
489,127528381,1008,930,1180,-2039,291,3,117,0.4541015625,0.576171875,-0.99560546875,8.871951219512196,0.09146341463414635,3.5670731707317076,0.025,0.007,0.907,-0.84,-3.8,3.87,0.65,-1.07,1.0,1633,1633,1500,1500,1.26,0,3,1,1
490,127529390,1009,1156,2068,-2509,136,-300,112,0.564453125,1.009765625,-1.22509765625,4.146341463414634,-9.146341463414634,3.414634146341464,0.216,-0.083,0.924,-1.71,-4.05,-0.39,0.65,-1.08,1.0,1633,1633,1500,1500,12.83,0,3,1,1
491,127530398,1008,463,2907,-828,-144,-398,27,0.22607421875,1.41943359375,-0.404296875,-4.390243902439025,-12.134146341463415,0.8231707317073171,0.245,-0.105,1.002,-1.42,-1.35,-4.23,0.66,-1.09,0.99,1633,1633,1500,1500,13.7,0,3,1,1
492,127531405,1007,-249,2837,827,-306,-180,-66,-0.12158203125,1.38525390625,0.40380859375,-9.329268292682928,-5.487804878048781,-2.0121951219512195,0.142,-0.069,1.063,-0.27,2.08,-4.56,0.66,-1.09,0.99,1633,1633,1500,1500,7.23,0,3,1,1
493,127532414,1009,-716,2237,1769,-208,143,-109,-0.349609375,1.09228515625,0.86376953125,-6.341463414634147,4.359756097560976,-3.3231707317073176,-0.016,-0.003,1.067,0.91,3.37,-1.49,0.66,-1.09,0.99,1633,1633,1500,1500,2.05,0,3,1,1
494,127533422,1008,-736,1679,2289,16,341,-85,-0.359375,0.81982421875,1.11767578125,0.48780487804878053,10.396341463414634,-2.5914634146341466,-0.191,0.054,1.028,1.47,1.95,2.57,0.66,-1.08,0.99,1633,1633,1500,1500,12.19,0,3,1,1
495,127534431,1009,-71,1344,924,196,355,13,-0.03466796875,0.65625,0.451171875,5.975609756097562,10.823170731707318,0.39634146341463417,-0.232,0.051,0.969,0.83,-0.83,5.41,0.65,-1.07,0.99,1633,1633,1500,1500,15.01,0,3,1,1
496,127535439,1008,691,1361,-1744,273,116,106,0.33740234375,0.66455078125,-0.8515625,8.323170731707318,3.536585365853659,3.231707317073171,-0.06,-0.01,0.921,-0.52,-3.46,4.87,0.65,-1.07,1.0,1633,1633,1500,1500,4.84,0,3,1,1
497,127536447,1008,799,1822,-2881,229,-256,89,0.39013671875,0.8896484375,-1.40673828125,6.981707317073171,-7.8048780487804885,2.713414634146342,0.172,-0.07,0.916,-1.26,-4.77,0.72,0.66,-1.08,1.0,1633,1633,1500,1500,10.24,0,3,1,1
498,127537456,1009,356,2584,-1528,2,-446,-7,0.173828125,1.26171875,-0.74609375,0.06097560975609757,-13.597560975609758,-0.2134146341463415,0.263,-0.087,0.97,-0.77,-3.33,-3.98,0.66,-1.09,1.0,1633,1633,1500,1500,14.7,0,3,1,1
499,127538464,1008,-200,2945,717,-293,-297,-64,-0.09765625,1.43798828125,0.35009765625,-8.932926829268293,-9.05487804878049,-1.9512195121951221,0.165,-0.057,1.045,0.12,0.63,-5.59,0.66,-1.1,0.99,1633,1633,1500,1500,8.29,0,3,1,1
500,127539472,1008,-642,2505,2076,-338,43,-77,-0.3134765625,1.22314453125,1.013671875,-10.30487804878049,1.3109756097560976,-2.347560975609756,-0.021,0.001,1.073,0.86,3.74,-3.19,0.66,-1.09,0.99,1633,1633,1500,1500,2.35,0,3,1,1
501,127540481,1009,-600,1752,2450,-122,354,-76,-0.29296875,0.85546875,1.1962890625,-3.7195121951219514,10.792682926829269,-2.3170731707317076,-0.207,0.047,1.038,1.34,3.6,1.57,0.66,-1.08,0.99,1633,1633,1500,1500,12.82,0,3,1,1
502,127541489,1008,24,1334,1626,97,450,-16,0.01171875,0.6513671875,0.7939453125,2.957317073170732,13.719512195121952,-0.48780487804878053,-0.3,0.038,0.977,1.04,1.27,5.72,0.65,-1.07,0.99,1633,1633,1500,1500,18.41,0,3,1,1
503,127542497,1008,642,1439,-645,216,267,57,0.3134765625,0.70263671875,-0.31494140625,6.585365853658537,8.140243902439025,1.7378048780487807,-0.202,-0.017,0.933,0.11,-1.48,6.61,0.65,-1.07,1.0,1633,1633,1500,1500,13.35,0,3,1,1
504,127543506,1009,676,1866,-2729,241,-42,44,0.330078125,0.9111328125,-1.33251953125,7.347560975609757,-1.2804878048780488,1.3414634146341464,0.04,-0.067,0.93,-0.38,-3.57,4.06,0.66,-1.07,1.0,1633,1633,1500,1500,3.75,0,3,1,1
505,127544514,1008,208,2410,-2713,130,-282,-25,0.1015625,1.1767578125,-1.32470703125,3.963414634146342,-8.597560975609756,-0.7621951219512195,0.244,-0.072,0.969,0.0,-3.83,-0.08,0.66,-1.08,1.0,1633,1633,1500,1500,13.52,0,3,1,1
506,127545523,1009,-300,2641,-777,-109,-338,-40,-0.146484375,1.28955078125,-0.37939453125,-3.3231707317073176,-10.30487804878049,-1.2195121951219514,0.265,-0.037,1.02,0.39,-1.57,-3.41,0.66,-1.09,1.0,1633,1633,1500,1500,13.59,0,3,1,1
507,127546530,1007,-530,2211,1042,-241,-190,-5,-0.2587890625,1.07958984375,0.5087890625,-7.347560975609757,-5.7926829268292686,-0.15243902439024393,0.142,0.009,1.029,0.3,1.27,-4.12,0.66,-1.09,1.0,1633,1633,1500,1500,6.91,0,3,1,1
508,127547538,1008,-183,1609,1653,-97,42,2,-0.08935546875,0.78564453125,0.80712890625,-2.957317073170732,1.2804878048780488,0.06097560975609757,-0.007,0.021,0.99,0.17,1.7,-2.22,0.66,-1.09,0.99,1633,1633,1500,1500,2.47,0,3,1,1
509,127548547,1009,506,1518,1216,134,187,22,0.2470703125,0.7412109375,0.59375,4.085365853658537,5.701219512195123,0.6707317073170732,-0.1,-0.02,0.951,-0.11,-0.36,0.51,0.66,-1.09,1.0,1633,1633,1500,1500,7.16,0,3,1,1
510,127549555,1008,601,1947,-293,241,178,54,0.29345703125,0.95068359375,-0.14306640625,7.347560975609757,5.426829268292684,1.6463414634146343,-0.062,-0.064,0.951,-0.63,-2.83,2.24,0.66,-1.09,1.0,1633,1633,1500,1500,5.78,0,3,1,1
511,127550563,1008,71,2245,-1900,175,44,15,0.03466796875,1.09619140625,-0.927734375,5.335365853658537,1.3414634146341464,0.4573170731707317,0.094,-0.059,0.974,-0.58,-3.8,2.02,0.66,-1.09,1.0,1633,1633,1500,1500,5.28,0,3,1,1
512,127551572,1009,-340,2303,-1809,-43,-142,-63,-0.166015625,1.12451171875,-0.88330078125,-1.3109756097560976,-4.329268292682928,-1.9207317073170733,0.219,-0.023,0.998,0.24,-2.22,-0.01,0.66,-1.1,1.0,1633,1633,1500,1500,11.36,0,3,1,1
513,127552578,1006,-465,2480,-27,-268,-220,-67,-0.22705078125,1.2109375,-0.01318359375,-8.170731707317074,-6.707317073170732,-2.0426829268292686,0.187,0.016,1.031,0.84,1.12,-2.16,0.66,-1.1,1.0,1633,1633,1500,1500,9.31,0,3,1,1
514,127553587,1009,-479,2289,1391,-319,-108,15,-0.23388671875,1.11767578125,0.67919921875,-9.725609756097562,-3.2926829268292686,0.4573170731707317,0.049,0.05,1.045,0.4,3.86,-2.45,0.66,-1.1,0.99,1633,1633,1500,1500,3.8,0,3,1,1
515,127554595,1008,-28,1568,1722,-169,19,64,-0.013671875,0.765625,0.8408203125,-5.152439024390245,0.5792682926829269,1.9512195121951221,-0.091,0.044,1.001,-0.39,4.16,-1.35,0.66,-1.09,0.99,1632,1632,1500,1500,7.1,0,3,1,1
516,127555603,1008,932,1339,1541,32,84,56,0.455078125,0.65380859375,0.75244140625,0.9756097560975611,2.5609756097560976,1.707317073170732,-0.196,-0.034,0.945,-0.84,2.31,0.04,0.66,-1.08,0.99,1632,1632,1500,1500,12.9,0,3,1,1
517,127556612,1009,1142,2074,514,152,151,41,0.5576171875,1.0126953125,0.2509765625,4.634146341463415,4.603658536585367,1.25,-0.204,-0.117,0.956,-0.98,-0.14,1.65,0.66,-1.08,1.0,1632,1632,1500,1500,14.54,0,3,1,1
518,127557620,1008,240,2612,-773,179,125,-12,0.1171875,1.275390625,-0.37744140625,5.457317073170732,3.810975609756098,-0.3658536585365854,-0.112,-0.117,1.007,-0.53,-2.05,2.46,0.67,-1.08,1.0,1632,1632,1500,1500,9.53,0,3,1,1
519,127558627,1007,-621,2307,-1354,113,-11,-94,-0.30322265625,1.12646484375,-0.6611328125,3.4451219512195124,-0.3353658536585366,-2.8658536585365857,0.01,-0.05,1.026,0.59,-2.65,1.61,0.67,-1.08,1.0,1632,1632,1500,1500,2.22,0,3,1,1
520,127559636,1009,-956,2123,-1117,1,-109,-117,-0.466796875,1.03662109375,-0.54541015625,0.030487804878048783,-3.3231707317073176,-3.5670731707317076,0.095,0.031,1.027,1.58,-1.9,0.05,0.66,-1.08,1.0,1632,1632,1500,1500,4.84,0,3,1,1
521,127560644,1008,-926,2194,-50,-102,-123,-39,-0.4521484375,1.0712890625,-0.0244140625,-3.1097560975609757,-3.7500000000000004,-1.1890243902439026,0.083,0.098,1.034,1.44,-0.36,-1.13,0.66,-1.09,1.0,1633,1633,1500,1500,7.03,0,3,1,1
522,127561653,1009,-294,1689,1031,-152,-126,64,-0.1435546875,0.82470703125,0.50341796875,-4.634146341463415,-3.8414634146341466,1.9512195121951221,-0.009,0.105,1.001,0.3,1.17,-1.95,0.66,-1.08,1.0,1633,1633,1500,1500,6.86,0,3,1,1
523,127562661,1008,919,1098,1241,-105,-141,103,0.44873046875,0.5361328125,0.60595703125,-3.2012195121951224,-4.298780487804878,3.1402439024390247,-0.103,0.017,0.927,-0.85,1.72,-2.65,0.66,-1.08,0.99,1632,1632,1500,1500,7.68,0,3,1,1
524,127563669,1008,1387,1682,457,7,-115,87,0.67724609375,0.8212890625,0.22314453125,0.2134146341463415,-3.50609756097561,2.6524390243902443,-0.122,-0.092,0.91,-1.46,0.94,-2.84,0.66,-1.07,0.99,1632,1632,1500,1500,10.13,0,3,1,1
525,127564678,1009,484,2785,-665,117,-49,13,0.236328125,1.35986328125,-0.32470703125,3.5670731707317076,-1.4939024390243905,0.39634146341463417,-0.051,-0.115,0.981,-1.11,-0.69,-2.3,0.66,-1.07,0.99,1633,1633,1500,1500,7.29,0,3,1,1
526,127565686,1008,-560,2798,-1241,120,29,-86,-0.2734375,1.3662109375,-0.60595703125,3.658536585365854,0.8841463414634148,-2.6219512195121952,0.052,-0.053,1.042,0.12,-1.81,-1.15,0.66,-1.07,0.99,1633,1633,1500,1500,2.91,0,3,1,1
527,127566694,1008,-1063,2218,-1045,-7,85,-124,-0.51904296875,1.0830078125,-0.51025390625,-0.2134146341463415,2.5914634146341466,-3.780487804878049,0.125,0.037,1.049,1.34,-1.27,0.18,0.66,-1.08,0.99,1633,1633,1500,1500,6.32,0,3,1,1
528,127567703,1009,-1127,2095,-359,-155,39,-69,-0.55029296875,1.02294921875,-0.17529296875,-4.725609756097561,1.1890243902439026,-2.103658536585366,0.133,0.118,1.045,1.59,0.6,0.6,0.66,-1.08,0.99,1633,1633,1500,1500,9.39,0,3,1,1
529,127568710,1007,-362,1811,143,-196,-87,41,-0.1767578125,0.88427734375,0.06982421875,-5.975609756097562,-2.6524390243902443,1.25,0.1,0.127,1.019,0.63,2.26,-0.39,0.65,-1.08,0.99,1633,1633,1500,1500,9.01,0,3,1,1
