index,timestamp_us,dt_us,raw_accel_x,raw_accel_y,raw_accel_z,raw_gyro_x,raw_gyro_y,raw_gyro_z,accel_x_g,accel_y_g,accel_z_g,gyro_x_dps,gyro_y_dps,gyro_z_dps,accel_filt_x_g,accel_filt_y_g,accel_filt_z_g,gyro_filt_x_dps,gyro_filt_y_dps,gyro_filt_z_dps,roll_deg,pitch_deg,yaw_deg,motor_upper_us,motor_lower_us,servo_alpha_us,servo_beta_us,accel_error_deg,fusion_flags,flight_flags,armed,gyro_bias_ready
0,181629378,,12,2033,-30,-13,-10,1,0.005859375,0.99267578125,-0.0146484375,-0.39634146341463417,-0.30487804878048785,0.030487804878048783,0.015,-0.005,0.993,-0.06,0.0,-0.02,0.42,-0.99,6.23,1100,1100,1500,1500,0.14,0,3,1,1
1,181630387,1009,12,2034,-30,-12,-9,1,0.005859375,0.9931640625,-0.0146484375,-0.3658536585365854,-0.27439024390243905,0.030487804878048783,0.015,-0.005,0.993,-0.05,0.0,-0.02,0.42,-0.99,6.23,1100,1100,1500,1500,0.14,0,3,1,1
2,181631395,1008,12,2035,-31,-12,-8,1,0.005859375,0.99365234375,-0.01513671875,-0.3658536585365854,-0.24390243902439027,0.030487804878048783,0.015,-0.005,0.993,-0.05,-0.01,-0.01,0.42,-0.99,6.23,1100,1100,1500,1500,0.14,0,3,1,1
3,181632403,1008,12,2033,-30,-14,-9,2,0.005859375,0.99267578125,-0.0146484375,-0.426829268292683,-0.27439024390243905,0.06097560975609757,0.015,-0.005,0.993,-0.06,0.0,-0.01,0.42,-0.99,6.23,1100,1100,1500,1500,0.15,0,3,1,1
4,181633412,1009,12,2034,-30,-16,-9,2,0.005859375,0.9931640625,-0.0146484375,-0.48780487804878053,-0.27439024390243905,0.06097560975609757,0.015,-0.005,0.993,-0.07,0.03,-0.01,0.42,-0.99,6.23,1100,1100,1500,1500,0.15,0,3,1,1
5,181634420,1008,12,2037,-33,-17,-9,2,0.005859375,0.99462890625,-0.01611328125,-0.5182926829268293,-0.27439024390243905,0.06097560975609757,0.015,-0.005,0.993,-0.07,0.06,-0.01,0.42,-0.99,6.23,1100,1100,1500,1500,0.14,0,3,1,1
6,181635428,1008,11,2039,-35,-16,-9,1,0.00537109375,0.99560546875,-0.01708984375,-0.48780487804878053,-0.27439024390243905,0.030487804878048783,0.015,-0.005,0.993,-0.06,0.07,-0.01,0.42,-0.99,6.23,1100,1100,1500,1500,0.13,0,3,1,1
7,181636437,1009,11,2037,-36,-14,-9,0,0.00537109375,0.99462890625,-0.017578125,-0.426829268292683,-0.27439024390243905,0.0,0.015,-0.005,0.993,-0.05,0.05,-0.01,0.42,-0.99,6.23,1100,1100,1500,1500,0.12,0,3,1,1
8,181637445,1008,11,2035,-35,-15,-10,0,0.00537109375,0.99365234375,-0.01708984375,-0.4573170731707317,-0.30487804878048785,0.0,0.016,-0.005,0.993,-0.04,0.06,-0.02,0.42,-0.99,6.23,1100,1100,1500,1500,0.12,0,3,1,1
9,181638454,1009,12,2035,-33,-15,-10,0,0.005859375,0.99365234375,-0.01611328125,-0.4573170731707317,-0.30487804878048785,0.0,0.016,-0.005,0.993,-0.03,0.06,-0.03,0.42,-0.99,6.23,1100,1100,1500,1500,0.12,0,3,1,1
10,181639462,1008,14,2036,-32,-14,-8,0,0.0068359375,0.994140625,-0.015625,-0.426829268292683,-0.24390243902439027,0.0,0.015,-0.005,0.993,-0.03,0.05,-0.01,0.42,-0.99,6.23,1100,1100,1500,1500,0.11,0,3,1,1
11,181640470,1008,14,2037,-33,-14,-9,1,0.0068359375,0.99462890625,-0.01611328125,-0.426829268292683,-0.27439024390243905,0.030487804878048783,0.016,-0.006,0.994,-0.03,0.04,-0.01,0.42,-0.99,6.23,1100,1100,1500,1500,0.1,0,3,1,1
12,181641479,1009,12,2036,-34,-14,-11,2,0.005859375,0.994140625,-0.0166015625,-0.426829268292683,-0.3353658536585366,0.06097560975609757,0.016,-0.006,0.994,-0.05,0.04,-0.03,0.42,-0.99,6.23,1100,1100,1500,1500,0.1,0,3,1,1
13,181642487,1008,10,2034,-35,-13,-11,1,0.0048828125,0.9931640625,-0.01708984375,-0.39634146341463417,-0.3353658536585366,0.030487804878048783,0.016,-0.005,0.993,-0.05,0.02,-0.04,0.42,-0.99,6.23,1100,1100,1500,1500,0.1,0,3,1,1
14,181643495,1008,11,2034,-34,-12,-11,0,0.00537109375,0.9931640625,-0.0166015625,-0.3658536585365854,-0.3353658536585366,0.0,0.016,-0.005,0.993,-0.04,0.0,-0.05,0.42,-0.99,6.23,1100,1100,1500,1500,0.11,0,3,1,1
15,181644504,1009,12,2035,-33,-13,-11,0,0.005859375,0.99365234375,-0.01611328125,-0.39634146341463417,-0.3353658536585366,0.0,0.016,-0.005,0.993,-0.03,0.0,-0.06,0.42,-0.99,6.23,1100,1100,1500,1500,0.11,0,3,1,1
16,181645512,1008,11,2035,-34,-13,-12,0,0.00537109375,0.99365234375,-0.0166015625,-0.39634146341463417,-0.3658536585365854,0.0,0.016,-0.005,0.993,-0.03,0.0,-0.07,0.42,-0.99,6.23,1100,1100,1500,1500,0.11,0,3,1,1
17,181646520,1008,12,2035,-34,-12,-10,1,0.005859375,0.99365234375,-0.0166015625,-0.3658536585365854,-0.30487804878048785,0.030487804878048783,0.016,-0.005,0.993,-0.03,0.0,-0.06,0.42,-0.99,6.23,1100,1100,1500,1500,0.11,0,3,1,1
18,181647529,1009,13,2035,-32,-11,-10,1,0.00634765625,0.99365234375,-0.015625,-0.3353658536585366,-0.30487804878048785,0.030487804878048783,0.016,-0.005,0.993,-0.04,-0.02,-0.05,0.42,-0.99,6.23,1100,1100,1500,1500,0.1,0,3,1,1
19,181648537,1008,12,2036,-30,-11,-10,2,0.005859375,0.994140625,-0.0146484375,-0.3353658536585366,-0.30487804878048785,0.06097560975609757,0.016,-0.005,0.993,-0.05,-0.03,-0.05,0.42,-0.99,6.23,1100,1100,1500,1500,0.11,0,3,1,1
20,181649546,1009,12,2036,-31,-14,-9,2,0.005859375,0.994140625,-0.01513671875,-0.426829268292683,-0.27439024390243905,0.06097560975609757,0.015,-0.005,0.993,-0.06,-0.01,-0.04,0.42,-0.99,6.23,1100,1100,1500,1500,0.12,0,3,1,1
21,181650554,1008,13,2037,-34,-15,-8,2,0.00634765625,0.99462890625,-0.0166015625,-0.4573170731707317,-0.24390243902439027,0.06097560975609757,0.015,-0.005,0.993,-0.07,0.01,-0.02,0.42,-0.99,6.23,1100,1100,1500,1500,0.11,0,3,1,1
22,181651562,1008,14,2038,-36,-15,-8,2,0.0068359375,0.9951171875,-0.017578125,-0.4573170731707317,-0.24390243902439027,0.06097560975609757,0.016,-0.006,0.994,-0.07,0.02,0.0,0.42,-0.99,6.23,1100,1100,1500,1500,0.09,0,3,1,1
23,181652570,1008,14,2037,-34,-13,-8,1,0.0068359375,0.99462890625,-0.0166015625,-0.39634146341463417,-0.24390243902439027,0.030487804878048783,0.016,-0.006,0.994,-0.06,0.02,0.0,0.42,-0.99,6.23,1100,1100,1500,1500,0.09,0,3,1,1
24,181653578,1008,13,2036,-32,-12,-7,1,0.00634765625,0.994140625,-0.015625,-0.3658536585365854,-0.2134146341463415,0.030487804878048783,0.016,-0.006,0.994,-0.06,0.0,0.01,0.42,-0.99,6.23,1100,1100,1500,1500,0.09,0,3,1,1
25,181654587,1009,13,2036,-33,-13,-8,1,0.00634765625,0.994140625,-0.01611328125,-0.39634146341463417,-0.24390243902439027,0.030487804878048783,0.016,-0.006,0.994,-0.05,0.0,0.01,0.42,-0.99,6.23,1100,1100,1500,1500,0.09,0,3,1,1
26,181655595,1008,14,2037,-34,-14,-9,1,0.0068359375,0.99462890625,-0.0166015625,-0.426829268292683,-0.27439024390243905,0.030487804878048783,0.016,-0.006,0.994,-0.05,0.01,0.0,0.42,-0.99,6.23,1100,1100,1500,1500,0.08,0,3,1,1
27,181656604,1009,15,2037,-34,-14,-9,1,0.00732421875,0.99462890625,-0.0166015625,-0.426829268292683,-0.27439024390243905,0.030487804878048783,0.016,-0.006,0.994,-0.05,0.01,0.0,0.42,-0.99,6.23,1100,1100,1500,1500,0.07,0,3,1,1
28,181657612,1008,14,2035,-33,-14,-9,2,0.0068359375,0.99365234375,-0.01611328125,-0.426829268292683,-0.27439024390243905,0.06097560975609757,0.016,-0.006,0.994,-0.06,0.02,0.0,0.42,-0.99,6.23,1100,1100,1500,1500,0.07,0,3,1,1
29,181658620,1008,13,2032,-32,-12,-9,2,0.00634765625,0.9921875,-0.015625,-0.3658536585365854,-0.27439024390243905,0.06097560975609757,0.016,-0.006,0.993,-0.06,0.0,0.0,0.42,-0.99,6.23,1100,1100,1500,1500,0.08,0,3,1,1
30,181659629,1009,12,2032,-31,-9,-9,1,0.005859375,0.9921875,-0.01513671875,-0.27439024390243905,-0.27439024390243905,0.030487804878048783,0.016,-0.006,0.993,-0.06,-0.03,-0.01,0.42,-0.99,6.23,1100,1100,1500,1500,0.09,0,3,1,1
31,181660637,1008,11,2034,-32,-10,-10,0,0.00537109375,0.9931640625,-0.015625,-0.30487804878048785,-0.30487804878048785,0.0,0.015,-0.006,0.993,-0.04,-0.05,-0.02,0.42,-0.99,6.23,1100,1100,1500,1500,0.1,0,3,1,1
32,181661643,1006,11,2035,-33,-11,-11,0,0.00537109375,0.99365234375,-0.01611328125,-0.3353658536585366,-0.3353658536585366,0.0,0.015,-0.006,0.993,-0.03,-0.05,-0.03,0.42,-0.99,6.23,1100,1100,1500,1500,0.1,0,3,1,1
33,181662651,1008,11,2034,-34,-12,-11,0,0.00537109375,0.9931640625,-0.0166015625,-0.3658536585365854,-0.3353658536585366,0.0,0.016,-0.005,0.993,-0.03,-0.04,-0.05,0.42,-0.99,6.23,1100,1100,1500,1500,0.1,0,3,1,1
34,181663660,1009,11,2034,-34,-13,-9,1,0.00537109375,0.9931640625,-0.0166015625,-0.39634146341463417,-0.27439024390243905,0.030487804878048783,0.016,-0.005,0.993,-0.03,-0.03,-0.03,0.42,-0.99,6.23,1100,1100,1500,1500,0.1,0,3,1,1
35,181664668,1008,11,2036,-34,-12,-9,2,0.00537109375,0.994140625,-0.0166015625,-0.3658536585365854,-0.27439024390243905,0.06097560975609757,0.016,-0.005,0.993,-0.05,-0.02,-0.03,0.42,-0.99,6.23,1100,1100,1500,1500,0.11,0,3,1,1
36,181665676,1008,12,2036,-34,-10,-8,1,0.005859375,0.994140625,-0.0166015625,-0.30487804878048785,-0.24390243902439027,0.030487804878048783,0.016,-0.005,0.993,-0.05,-0.04,-0.01,0.42,-0.99,6.23,1100,1100,1500,1500,0.1,0,3,1,1
37,181666684,1008,13,2035,-34,-10,-8,1,0.00634765625,0.99365234375,-0.0166015625,-0.30487804878048785,-0.24390243902439027,0.030487804878048783,0.016,-0.005,0.993,-0.05,-0.06,0.0,0.42,-0.99,6.23,1100,1100,1500,1500,0.1,0,3,1,1
38,181667693,1009,13,2035,-33,-12,-9,1,0.00634765625,0.99365234375,-0.01611328125,-0.3658536585365854,-0.27439024390243905,0.030487804878048783,0.016,-0.005,0.993,-0.05,-0.05,0.0,0.42,-0.99,6.23,1100,1100,1500,1500,0.1,0,3,1,1
39,181668701,1008,12,2036,-33,-13,-10,1,0.005859375,0.994140625,-0.01611328125,-0.39634146341463417,-0.30487804878048785,0.030487804878048783,0.016,-0.005,0.993,-0.05,-0.03,-0.01,0.42,-0.99,6.23,1100,1100,1500,1500,0.1,0,3,1,1
40,181669709,1008,12,2036,-35,-14,-10,1,0.005859375,0.994140625,-0.01708984375,-0.426829268292683,-0.30487804878048785,0.030487804878048783,0.016,-0.005,0.993,-0.05,-0.01,-0.02,0.42,-0.99,6.23,1100,1100,1500,1500,0.09,0,3,1,1
41,181670718,1009,12,2034,-35,-13,-10,1,0.005859375,0.9931640625,-0.01708984375,-0.39634146341463417,-0.30487804878048785,0.030487804878048783,0.016,-0.005,0.993,-0.05,0.0,-0.03,0.42,-0.99,6.23,1100,1100,1500,1500,0.09,0,3,1,1
42,181671726,1008,13,2033,-34,-12,-10,1,0.00634765625,0.99267578125,-0.0166015625,-0.3658536585365854,-0.30487804878048785,0.030487804878048783,0.016,-0.005,0.993,-0.05,-0.01,-0.03,0.42,-0.99,6.23,1100,1100,1500,1500,0.09,0,3,1,1
43,181672734,1008,13,2035,-33,-11,-9,1,0.00634765625,0.99365234375,-0.01611328125,-0.3353658536585366,-0.27439024390243905,0.030487804878048783,0.016,-0.006,0.993,-0.05,-0.02,-0.02,0.42,-0.99,6.23,1100,1100,1500,1500,0.09,0,3,1,1
44,181673743,1009,12,2036,-33,-11,-9,1,0.005859375,0.994140625,-0.01611328125,-0.3353658536585366,-0.27439024390243905,0.030487804878048783,0.016,-0.006,0.993,-0.05,-0.03,-0.02,0.42,-0.99,6.23,1100,1100,1500,1500,0.09,0,3,1,1
45,181674751,1008,11,2036,-34,-11,-7,1,0.00537109375,0.994140625,-0.0166015625,-0.3353658536585366,-0.2134146341463415,0.030487804878048783,0.016,-0.005,0.993,-0.05,-0.04,0.0,0.42,-0.99,6.23,1100,1100,1500,1500,0.09,0,3,1,1
46,181675759,1008,10,2035,-35,-11,-7,1,0.0048828125,0.99365234375,-0.01708984375,-0.3353658536585366,-0.2134146341463415,0.030487804878048783,0.016,-0.005,0.993,-0.05,-0.05,0.01,0.42,-0.99,6.23,1100,1100,1500,1500,0.1,0,3,1,1
47,181676767,1008,10,2033,-36,-13,-8,2,0.0048828125,0.99267578125,-0.017578125,-0.39634146341463417,-0.24390243902439027,0.06097560975609757,0.016,-0.005,0.993,-0.06,-0.03,0.01,0.42,-0.99,6.23,1100,1100,1500,1500,0.1,0,3,1,1
48,181677775,1008,11,2033,-35,-14,-9,1,0.00537109375,0.99267578125,-0.01708984375,-0.426829268292683,-0.27439024390243905,0.030487804878048783,0.016,-0.005,0.993,-0.05,-0.01,0.0,0.42,-0.99,6.23,1100,1100,1500,1500,0.11,0,3,1,1
49,181678784,1009,13,2033,-36,-14,-9,1,0.00634765625,0.99267578125,-0.017578125,-0.426829268292683,-0.27439024390243905,0.030487804878048783,0.016,-0.005,0.993,-0.05,0.0,0.0,0.42,-0.99,6.23,1100,1100,1500,1500,0.1,0,3,1,1
50,181679792,1008,13,2034,-39,-13,-8,2,0.00634765625,0.9931640625,-0.01904296875,-0.39634146341463417,-0.24390243902439027,0.06097560975609757,0.017,-0.005,0.993,-0.06,0.0,0.0,0.42,-0.99,6.23,1100,1100,1500,1500,0.09,0,3,1,1
51,181680801,1009,14,2035,-40,-10,-9,3,0.0068359375,0.99365234375,-0.01953125,-0.30487804878048785,-0.27439024390243905,0.09146341463414635,0.017,-0.005,0.993,-0.08,-0.02,0.0,0.42,-0.99,6.23,1100,1100,1500,1500,0.08,0,3,1,1
52,181681809,1008,15,2035,-39,-9,-9,2,0.00732421875,0.99365234375,-0.01904296875,-0.27439024390243905,-0.27439024390243905,0.06097560975609757,0.017,-0.006,0.993,-0.08,-0.05,0.0,0.42,-0.99,6.23,1100,1100,1500,1500,0.07,0,3,1,1
53,181682817,1008,16,2034,-41,-10,-9,1,0.0078125,0.9931640625,-0.02001953125,-0.30487804878048785,-0.27439024390243905,0.030487804878048783,0.018,-0.006,0.993,-0.07,-0.06,0.0,0.42,-0.99,6.23,1100,1100,1500,1500,0.07,0,3,1,1
54,181683826,1009,15,2033,-42,-12,-8,0,0.00732421875,0.99267578125,-0.0205078125,-0.3658536585365854,-0.24390243902439027,0.0,0.018,-0.006,0.993,-0.05,-0.05,0.0,0.42,-0.99,6.23,1100,1100,1500,1500,0.08,0,3,1,1
55,181684834,1008,13,2033,-40,-11,-8,0,0.00634765625,0.99267578125,-0.01953125,-0.3353658536585366,-0.24390243902439027,0.0,0.018,-0.006,0.993,-0.04,-0.05,0.0,0.42,-0.99,6.23,1100,1100,1500,1500,0.09,0,3,1,1
56,181685842,1008,13,2033,-38,-10,-7,0,0.00634765625,0.99267578125,-0.0185546875,-0.30487804878048785,-0.2134146341463415,0.0,0.018,-0.006,0.993,-0.03,-0.06,0.01,0.42,-0.99,6.23,1100,1100,1500,1500,0.09,0,3,1,1
57,181686851,1009,13,2035,-36,-11,-6,1,0.00634765625,0.99365234375,-0.017578125,-0.3353658536585366,-0.1829268292682927,0.030487804878048783,0.018,-0.006,0.993,-0.04,-0.06,0.03,0.42,-0.99,6.23,1100,1100,1500,1500,0.08,0,3,1,1
58,181687859,1008,13,2037,-35,-13,-8,2,0.00634765625,0.99462890625,-0.01708984375,-0.39634146341463417,-0.24390243902439027,0.06097560975609757,0.018,-0.006,0.993,-0.05,-0.04,0.03,0.42,-0.99,6.23,1100,1100,1500,1500,0.07,0,3,1,1
59,181688867,1008,13,2038,-36,-13,-9,0,0.00634765625,0.9951171875,-0.017578125,-0.39634146341463417,-0.27439024390243905,0.0,0.018,-0.006,0.993,-0.04,-0.02,0.01,0.42,-0.99,6.23,1100,1100,1500,1500,0.07,0,3,1,1
60,181689876,1009,14,2038,-38,-13,-9,-1,0.0068359375,0.9951171875,-0.0185546875,-0.39634146341463417,-0.27439024390243905,-0.030487804878048783,0.018,-0.006,0.993,-0.02,-0.01,0.0,0.42,-0.99,6.23,1100,1100,1500,1500,0.07,0,3,1,1
61,181690884,1008,15,2037,-38,-12,-9,0,0.00732421875,0.99462890625,-0.0185546875,-0.3658536585365854,-0.27439024390243905,0.0,0.018,-0.006,0.994,-0.02,-0.02,0.0,0.42,-0.99,6.23,1100,1100,1500,1500,0.07,0,3,1,1
62,181691892,1008,15,2035,-37,-11,-9,1,0.00732421875,0.99365234375,-0.01806640625,-0.3353658536585366,-0.27439024390243905,0.030487804878048783,0.018,-0.006,0.993,-0.03,-0.03,0.0,0.42,-0.99,6.23,1100,1100,1500,1500,0.06,0,3,1,1
63,181692901,1009,13,2033,-36,-11,-8,1,0.00634765625,0.99267578125,-0.017578125,-0.3353658536585366,-0.24390243902439027,0.030487804878048783,0.018,-0.006,0.993,-0.03,-0.04,0.0,0.42,-0.99,6.23,1100,1100,1500,1500,0.06,0,3,1,1
64,181693909,1008,11,2033,-36,-12,-8,1,0.00537109375,0.99267578125,-0.017578125,-0.3658536585365854,-0.24390243902439027,0.030487804878048783,0.018,-0.006,0.993,-0.04,-0.03,0.0,0.42,-0.99,6.23,1100,1100,1500,1500,0.07,0,3,1,1
65,181694918,1009,11,2035,-36,-13,-8,2,0.00537109375,0.99365234375,-0.017578125,-0.39634146341463417,-0.24390243902439027,0.06097560975609757,0.017,-0.006,0.993,-0.05,-0.02,0.01,0.42,-0.99,6.23,1100,1100,1500,1500,0.07,0,3,1,1
66,181695926,1008,12,2035,-35,-13,-8,2,0.005859375,0.99365234375,-0.01708984375,-0.39634146341463417,-0.24390243902439027,0.06097560975609757,0.017,-0.006,0.993,-0.06,-0.01,0.01,0.42,-0.99,6.23,1100,1100,1500,1500,0.07,0,3,1,1
67,181696934,1008,13,2035,-34,-12,-9,2,0.00634765625,0.99365234375,-0.0166015625,-0.3658536585365854,-0.27439024390243905,0.06097560975609757,0.017,-0.006,0.993,-0.07,-0.02,0.0,0.42,-0.99,6.23,1100,1100,1500,1500,0.07,0,3,1,1
68,181697943,1009,13,2035,-35,-12,-9,1,0.00634765625,0.99365234375,-0.01708984375,-0.3658536585365854,-0.27439024390243905,0.030487804878048783,0.017,-0.006,0.993,-0.06,-0.02,0.0,0.42,-0.99,6.23,1100,1100,1500,1500,0.06,0,3,1,1
69,181698951,1008,13,2034,-37,-13,-8,0,0.00634765625,0.9931640625,-0.01806640625,-0.39634146341463417,-0.24390243902439027,0.0,0.017,-0.006,0.993,-0.04,-0.01,0.0,0.42,-0.99,6.23,1100,1100,1500,1500,0.06,0,3,1,1
70,181699959,1008,14,2034,-37,-14,-8,0,0.0068359375,0.9931640625,-0.01806640625,-0.426829268292683,-0.24390243902439027,0.0,0.017,-0.006,0.993,-0.04,0.0,0.0,0.42,-0.99,6.23,1100,1100,1500,1500,0.06,0,3,1,1
71,181700968,1009,15,2034,-37,-14,-9,0,0.00732421875,0.9931640625,-0.01806640625,-0.426829268292683,-0.27439024390243905,0.0,0.017,-0.006,0.993,-0.03,0.01,0.0,0.42,-0.99,6.23,1100,1100,1500,1500,0.05,0,3,1,1
72,181701976,1008,14,2034,-36,-14,-9,0,0.0068359375,0.9931640625,-0.017578125,-0.426829268292683,-0.27439024390243905,0.0,0.017,-0.006,0.993,-0.02,0.01,0.0,0.42,-0.99,6.23,1100,1100,1500,1500,0.05,0,3,1,1
73,181702985,1009,14,2034,-38,-15,-9,1,0.0068359375,0.9931640625,-0.0185546875,-0.4573170731707317,-0.27439024390243905,0.030487804878048783,0.017,-0.006,0.993,-0.03,0.03,0.0,0.42,-0.99,6.23,1100,1100,1500,1500,0.05,0,3,1,1
74,181703993,1008,14,2033,-38,-13,-11,1,0.0068359375,0.99267578125,-0.0185546875,-0.39634146341463417,-0.3353658536585366,0.030487804878048783,0.017,-0.006,0.993,-0.04,0.02,-0.02,0.42,-0.99,6.23,1100,1100,1500,1500,0.06,0,3,1,1
75,181705001,1008,14,2033,-35,-13,-11,1,0.0068359375,0.99267578125,-0.01708984375,-0.39634146341463417,-0.3353658536585366,0.030487804878048783,0.017,-0.006,0.993,-0.04,0.01,-0.04,0.42,-0.99,6.23,1100,1100,1500,1500,0.05,0,3,1,1
76,181706010,1009,14,2034,-33,-14,-11,2,0.0068359375,0.9931640625,-0.01611328125,-0.426829268292683,-0.3353658536585366,0.06097560975609757,0.017,-0.006,0.993,-0.05,0.02,-0.05,0.42,-0.99,6.23,1100,1100,1500,1500,0.04,0,3,1,1
77,181707018,1008,14,2035,-34,-14,-9,2,0.0068359375,0.99365234375,-0.0166015625,-0.426829268292683,-0.27439024390243905,0.06097560975609757,0.017,-0.006,0.993,-0.06,0.02,-0.04,0.42,-0.99,6.23,1100,1100,1500,1500,0.04,0,3,1,1
78,181708026,1008,14,2035,-34,-14,-8,2,0.0068359375,0.99365234375,-0.0166015625,-0.426829268292683,-0.24390243902439027,0.06097560975609757,0.017,-0.006,0.993,-0.07,0.02,-0.02,0.42,-0.99,6.23,1100,1100,1500,1500,0.04,0,3,1,1
79,181709035,1009,13,2034,-33,-14,-8,1,0.00634765625,0.9931640625,-0.01611328125,-0.426829268292683,-0.24390243902439027,0.030487804878048783,0.017,-0.006,0.993,-0.06,0.02,0.0,0.42,-0.99,6.23,1100,1100,1500,1500,0.04,0,3,1,1
80,181710043,1008,13,2035,-33,-14,-9,1,0.00634765625,0.99365234375,-0.01611328125,-0.426829268292683,-0.27439024390243905,0.030487804878048783,0.016,-0.006,0.993,-0.06,0.03,-0.01,0.42,-0.99,6.23,1100,1100,1500,1500,0.05,0,3,1,1
81,181711051,1008,13,2035,-33,-15,-8,2,0.00634765625,0.99365234375,-0.01611328125,-0.4573170731707317,-0.24390243902439027,0.06097560975609757,0.016,-0.006,0.993,-0.06,0.04,0.0,0.42,-0.99,6.23,1100,1100,1500,1500,0.05,0,3,1,1
82,181712060,1009,13,2033,-33,-16,-8,2,0.00634765625,0.99267578125,-0.01611328125,-0.48780487804878053,-0.24390243902439027,0.06097560975609757,0.016,-0.006,0.993,-0.07,0.05,0.0,0.42,-0.99,6.23,1100,1100,1500,1500,0.06,0,3,1,1
83,181713068,1008,15,2032,-31,-17,-9,2,0.00732421875,0.9921875,-0.01513671875,-0.5182926829268293,-0.27439024390243905,0.06097560975609757,0.016,-0.006,0.993,-0.07,0.08,0.0,0.42,-0.99,6.23,1100,1100,1500,1500,0.06,0,3,1,1
84,181714077,1009,16,2033,-30,-17,-9,2,0.0078125,0.99267578125,-0.0146484375,-0.5182926829268293,-0.27439024390243905,0.06097560975609757,0.016,-0.006,0.993,-0.07,0.09,0.0,0.42,-0.99,6.23,1100,1100,1500,1500,0.07,0,3,1,1
85,181715085,1008,15,2035,-31,-17,-8,2,0.00732421875,0.99365234375,-0.01513671875,-0.5182926829268293,-0.24390243902439027,0.06097560975609757,0.016,-0.006,0.993,-0.07,0.1,0.0,0.42,-0.99,6.23,1100,1100,1500,1500,0.07,0,3,1,1
86,181716122,1037,14,2035,-33,-17,-8,2,0.0068359375,0.99365234375,-0.01611328125,-0.5182926829268293,-0.24390243902439027,0.06097560975609757,0.016,-0.006,0.993,-0.08,0.11,0.0,0.42,-0.99,6.23,1100,1100,1500,1500,0.07,0,3,1,1
87,181717102,980,15,2035,-32,-17,-8,1,0.00732421875,0.99365234375,-0.015625,-0.5182926829268293,-0.24390243902439027,0.030487804878048783,0.015,-0.006,0.993,-0.07,0.11,0.0,0.42,-0.99,6.23,1100,1100,1500,1500,0.08,0,3,1,1
88,181718110,1008,14,2034,-32,-16,-7,0,0.0068359375,0.9931640625,-0.015625,-0.48780487804878053,-0.2134146341463415,0.0,0.015,-0.006,0.993,-0.05,0.1,0.02,0.42,-0.99,6.23,1100,1100,1500,1500,0.08,0,3,1,1
89,181719118,1008,14,2033,-33,-16,-7,-1,0.0068359375,0.99267578125,-0.01611328125,-0.48780487804878053,-0.2134146341463415,-0.030487804878048783,0.015,-0.006,0.993,-0.03,0.1,0.03,0.42,-0.99,6.23,1100,1100,1500,1500,0.08,0,3,1,1
90,181720127,1009,14,2032,-34,-16,-8,0,0.0068359375,0.9921875,-0.0166015625,-0.48780487804878053,-0.24390243902439027,0.0,0.016,-0.006,0.993,-0.02,0.09,0.02,0.42,-0.99,6.23,1100,1100,1500,1500,0.07,0,3,1,1
91,181721135,1008,13,2034,-34,-15,-8,1,0.00634765625,0.9931640625,-0.0166015625,-0.4573170731707317,-0.24390243902439027,0.030487804878048783,0.016,-0.006,0.993,-0.03,0.08,0.02,0.42,-0.99,6.23,1100,1100,1500,1500,0.07,0,3,1,1
92,181722143,1008,13,2038,-34,-16,-8,1,0.00634765625,0.9951171875,-0.0166015625,-0.48780487804878053,-0.24390243902439027,0.030487804878048783,0.016,-0.006,0.993,-0.04,0.08,0.02,0.42,-0.99,6.23,1100,1100,1500,1500,0.07,0,3,1,1
93,181723152,1009,14,2038,-33,-18,-8,1,0.0068359375,0.9951171875,-0.01611328125,-0.5487804878048781,-0.24390243902439027,0.030487804878048783,0.016,-0.006,0.993,-0.04,0.11,0.01,0.42,-0.99,6.23,1100,1100,1500,1500,0.07,0,3,1,1
94,181724160,1008,14,2037,-32,-17,-8,0,0.0068359375,0.99462890625,-0.015625,-0.5182926829268293,-0.24390243902439027,0.0,0.016,-0.006,0.993,-0.03,0.11,0.01,0.42,-0.99,6.23,1100,1100,1500,1500,0.07,0,3,1,1
95,181725168,1008,14,2036,-31,-15,-8,0,0.0068359375,0.994140625,-0.01513671875,-0.4573170731707317,-0.24390243902439027,0.0,0.015,-0.006,0.993,-0.03,0.09,0.01,0.42,-0.99,6.23,1100,1100,1500,1500,0.08,0,3,1,1
96,181726205,1037,16,2035,-30,-14,-9,-1,0.0078125,0.99365234375,-0.0146484375,-0.426829268292683,-0.27439024390243905,-0.030487804878048783,0.015,-0.006,0.993,-0.01,0.07,0.0,0.42,-0.99,6.23,1100,1100,1500,1500,0.09,0,3,1,1
97,181727185,980,16,2034,-30,-13,-9,-1,0.0078125,0.9931640625,-0.0146484375,-0.39634146341463417,-0.27439024390243905,-0.030487804878048783,0.015,-0.007,0.993,0.0,0.05,0.0,0.42,-0.99,6.23,1100,1100,1500,1500,0.1,0,3,1,1
98,181728193,1008,14,2033,-32,-11,-8,1,0.0068359375,0.99267578125,-0.015625,-0.3353658536585366,-0.24390243902439027,0.030487804878048783,0.015,-0.007,0.993,-0.02,0.01,0.0,0.42,-0.99,6.23,1100,1100,1500,1500,0.09,0,3,1,1
99,181729201,1008,12,2033,-34,-11,-7,1,0.005859375,0.99267578125,-0.0166015625,-0.3353658536585366,-0.2134146341463415,0.030487804878048783,0.015,-0.006,0.993,-0.03,-0.01,0.01,0.42,-0.99,6.23,1100,1100,1500,1500,0.09,0,3,1,1
100,181730210,1009,12,2033,-36,-12,-8,1,0.005859375,0.99267578125,-0.017578125,-0.3658536585365854,-0.24390243902439027,0.030487804878048783,0.016,-0.006,0.993,-0.03,-0.01,0.01,0.42,-0.99,6.23,1100,1100,1500,1500,0.08,0,3,1,1
101,181731218,1008,14,2033,-36,-13,-9,1,0.0068359375,0.99267578125,-0.017578125,-0.39634146341463417,-0.27439024390243905,0.030487804878048783,0.016,-0.006,0.993,-0.04,-0.01,0.0,0.42,-0.99,6.23,1100,1100,1500,1500,0.07,0,3,1,1
102,181732226,1008,14,2034,-36,-14,-10,0,0.0068359375,0.9931640625,-0.017578125,-0.426829268292683,-0.30487804878048785,0.0,0.016,-0.006,0.993,-0.03,0.0,0.0,0.42,-0.99,6.23,1100,1100,1500,1500,0.06,0,3,1,1
103,181733235,1009,12,2035,-34,-13,-9,0,0.005859375,0.99365234375,-0.0166015625,-0.39634146341463417,-0.27439024390243905,0.0,0.016,-0.006,0.993,-0.03,0.0,-0.01,0.42,-0.99,6.23,1100,1100,1500,1500,0.06,0,3,1,1
104,181734243,1008,12,2035,-33,-13,-8,0,0.005859375,0.99365234375,-0.01611328125,-0.39634146341463417,-0.24390243902439027,0.0,0.016,-0.006,0.993,-0.02,0.0,0.0,0.42,-0.99,6.23,1100,1100,1500,1500,0.07,0,3,1,1
105,181735252,1009,14,2035,-34,-14,-7,1,0.0068359375,0.99365234375,-0.0166015625,-0.426829268292683,-0.2134146341463415,0.030487804878048783,0.016,-0.006,0.993,-0.03,0.01,0.01,0.42,-0.99,6.23,1100,1100,1500,1500,0.06,0,3,1,1
106,181736260,1008,16,2034,-35,-15,-8,1,0.0078125,0.9931640625,-0.01708984375,-0.4573170731707317,-0.24390243902439027,0.030487804878048783,0.016,-0.006,0.993,-0.04,0.02,0.01,0.42,-0.99,6.23,1100,1100,1500,1500,0.05,0,3,1,1
107,181737268,1008,14,2033,-36,-16,-8,1,0.0068359375,0.99267578125,-0.017578125,-0.48780487804878053,-0.24390243902439027,0.030487804878048783,0.016,-0.006,0.993,-0.04,0.05,0.01,0.42,-0.99,6.23,1100,1100,1500,1500,0.05,0,3,1,1
108,181738277,1009,11,2033,-36,-14,-8,1,0.00537109375,0.99267578125,-0.017578125,-0.426829268292683,-0.24390243902439027,0.030487804878048783,0.016,-0.006,0.993,-0.04,0.04,0.01,0.42,-0.99,6.23,1100,1100,1500,1500,0.05,0,3,1,1
109,181739285,1008,12,2034,-37,-12,-8,0,0.005859375,0.9931640625,-0.01806640625,-0.3658536585365854,-0.24390243902439027,0.0,0.017,-0.006,0.993,-0.03,0.02,0.01,0.42,-0.99,6.23,1100,1100,1500,1500,0.06,0,3,1,1
110,181740293,1008,13,2036,-36,-12,-8,1,0.00634765625,0.994140625,-0.017578125,-0.3658536585365854,-0.24390243902439027,0.030487804878048783,0.017,-0.006,0.993,-0.04,0.0,0.01,0.42,-0.99,6.23,1100,1100,1500,1500,0.06,0,3,1,1
111,181741300,1007,14,2036,-34,-13,-7,1,0.0068359375,0.994140625,-0.0166015625,-0.39634146341463417,-0.2134146341463415,0.030487804878048783,0.017,-0.006,0.993,-0.04,0.0,0.02,0.42,-0.99,6.23,1100,1100,1500,1500,0.05,0,3,1,1
112,181742308,1008,13,2036,-34,-12,-7,2,0.00634765625,0.994140625,-0.0166015625,-0.3658536585365854,-0.2134146341463415,0.06097560975609757,0.016,-0.006,0.993,-0.05,0.0,0.03,0.42,-0.99,6.23,1100,1100,1500,1500,0.05,0,3,1,1
113,181743317,1009,12,2037,-34,-12,-8,2,0.005859375,0.99462890625,-0.0166015625,-0.3658536585365854,-0.24390243902439027,0.06097560975609757,0.016,-0.006,0.993,-0.06,-0.01,0.02,0.42,-0.99,6.23,1100,1100,1500,1500,0.06,0,3,1,1
114,181744325,1008,12,2037,-35,-13,-9,2,0.005859375,0.99462890625,-0.01708984375,-0.39634146341463417,-0.27439024390243905,0.06097560975609757,0.016,-0.006,0.993,-0.07,0.0,0.01,0.42,-0.99,6.23,1100,1100,1500,1500,0.06,0,3,1,1
115,181745333,1008,12,2036,-36,-13,-9,0,0.005859375,0.994140625,-0.017578125,-0.39634146341463417,-0.27439024390243905,0.0,0.017,-0.006,0.993,-0.05,0.0,0.0,0.42,-0.99,6.23,1100,1100,1500,1500,0.07,0,3,1,1
116,181746342,1009,13,2036,-37,-13,-10,0,0.00634765625,0.994140625,-0.01806640625,-0.39634146341463417,-0.30487804878048785,0.0,0.017,-0.006,0.993,-0.04,0.0,-0.01,0.42,-0.99,6.23,1100,1100,1500,1500,0.07,0,3,1,1
117,181747350,1008,14,2036,-36,-13,-9,0,0.0068359375,0.994140625,-0.017578125,-0.39634146341463417,-0.27439024390243905,0.0,0.017,-0.006,0.993,-0.03,0.0,-0.01,0.42,-0.99,6.23,1100,1100,1500,1500,0.06,0,3,1,1
118,181748358,1008,15,2035,-36,-14,-9,0,0.00732421875,0.99365234375,-0.017578125,-0.426829268292683,-0.27439024390243905,0.0,0.017,-0.006,0.993,-0.03,0.0,-0.01,0.42,-0.99,6.23,1100,1100,1500,1500,0.05,0,3,1,1
119,181749367,1009,15,2035,-35,-13,-8,0,0.00732421875,0.99365234375,-0.01708984375,-0.39634146341463417,-0.24390243902439027,0.0,0.017,-0.006,0.993,-0.02,0.0,0.0,0.43,-0.99,6.23,1100,1100,1500,1500,0.04,0,3,1,1
120,181750375,1008,13,2036,-33,-12,-8,0,0.00634765625,0.994140625,-0.01611328125,-0.3658536585365854,-0.24390243902439027,0.0,0.017,-0.006,0.993,-0.02,0.0,0.0,0.43,-0.99,6.23,1100,1100,1500,1500,0.05,0,3,1,1
121,181751384,1009,12,2038,-32,-12,-8,1,0.005859375,0.9951171875,-0.015625,-0.3658536585365854,-0.24390243902439027,0.030487804878048783,0.016,-0.006,0.994,-0.03,-0.01,0.0,0.43,-0.99,6.23,1100,1100,1500,1500,0.06,0,3,1,1
122,181752392,1008,13,2038,-32,-13,-9,0,0.00634765625,0.9951171875,-0.015625,-0.39634146341463417,-0.27439024390243905,0.0,0.016,-0.006,0.994,-0.02,0.0,0.0,0.43,-0.99,6.23,1100,1100,1500,1500,0.06,0,3,1,1
123,181753400,1008,14,2038,-32,-13,-9,0,0.0068359375,0.9951171875,-0.015625,-0.39634146341463417,-0.27439024390243905,0.0,0.016,-0.006,0.994,-0.02,0.0,0.0,0.43,-0.99,6.23,1100,1100,1500,1500,0.07,0,3,1,1
124,181754408,1008,13,2037,-31,-13,-9,1,0.00634765625,0.99462890625,-0.01513671875,-0.39634146341463417,-0.27439024390243905,0.030487804878048783,0.016,-0.006,0.994,-0.03,0.0,0.0,0.43,-0.99,6.23,1100,1100,1500,1500,0.07,0,3,1,1
125,181755417,1009,12,2037,-32,-13,-10,1,0.005859375,0.99462890625,-0.015625,-0.39634146341463417,-0.30487804878048785,0.030487804878048783,0.016,-0.006,0.994,-0.04,0.0,-0.01,0.43,-0.99,6.23,1100,1100,1500,1500,0.08,0,3,1,1
126,181756425,1008,12,2038,-33,-12,-9,1,0.005859375,0.9951171875,-0.01611328125,-0.3658536585365854,-0.27439024390243905,0.030487804878048783,0.016,-0.006,0.994,-0.04,-0.01,-0.01,0.43,-0.99,6.23,1100,1100,1500,1500,0.09,0,3,1,1
127,181757433,1008,13,2037,-33,-12,-9,1,0.00634765625,0.99462890625,-0.01611328125,-0.3658536585365854,-0.27439024390243905,0.030487804878048783,0.016,-0.006,0.994,-0.04,-0.01,-0.01,0.43,-0.99,6.23,1100,1100,1500,1500,0.09,0,3,1,1
128,181758441,1008,14,2035,-33,-12,-9,0,0.0068359375,0.99365234375,-0.01611328125,-0.3658536585365854,-0.27439024390243905,0.0,0.016,-0.006,0.994,-0.03,-0.02,-0.01,0.43,-0.99,6.23,1100,1100,1500,1500,0.08,0,3,1,1
129,181759450,1009,14,2035,-33,-12,-9,0,0.0068359375,0.99365234375,-0.01611328125,-0.3658536585365854,-0.27439024390243905,0.0,0.016,-0.006,0.994,-0.03,-0.02,-0.01,0.43,-0.99,6.23,1100,1100,1500,1500,0.08,0,3,1,1
130,181760458,1008,13,2037,-32,-10,-9,0,0.00634765625,0.99462890625,-0.015625,-0.30487804878048785,-0.27439024390243905,0.0,0.016,-0.006,0.994,-0.02,-0.04,-0.01,0.43,-0.99,6.23,1100,1100,1500,1500,0.09,0,3,1,1
131,181761466,1008,13,2038,-33,-10,-9,0,0.00634765625,0.9951171875,-0.01611328125,-0.30487804878048785,-0.27439024390243905,0.0,0.016,-0.006,0.994,-0.02,-0.06,-0.01,0.43,-0.99,6.23,1100,1100,1500,1500,0.09,0,3,1,1
132,181762475,1009,14,2036,-34,-11,-7,0,0.0068359375,0.994140625,-0.0166015625,-0.3353658536585366,-0.2134146341463415,0.0,0.016,-0.006,0.994,-0.02,-0.05,0.0,0.43,-0.99,6.23,1100,1100,1500,1500,0.08,0,3,1,1
133,181763483,1008,15,2035,-34,-12,-6,0,0.00732421875,0.99365234375,-0.0166015625,-0.3658536585365854,-0.1829268292682927,0.0,0.016,-0.006,0.994,-0.02,-0.04,0.03,0.43,-0.99,6.23,1100,1100,1500,1500,0.07,0,3,1,1
134,181764492,1009,15,2034,-33,-11,-6,1,0.00732421875,0.9931640625,-0.01611328125,-0.3353658536585366,-0.1829268292682927,0.030487804878048783,0.016,-0.006,0.994,-0.03,-0.05,0.04,0.43,-0.99,6.23,1100,1100,1500,1500,0.07,0,3,1,1
135,181765500,1008,14,2033,-32,-11,-7,1,0.0068359375,0.99267578125,-0.015625,-0.3353658536585366,-0.2134146341463415,0.030487804878048783,0.016,-0.006,0.993,-0.03,-0.05,0.04,0.43,-0.99,6.23,1100,1100,1500,1500,0.07,0,3,1,1
136,181766508,1008,14,2034,-32,-12,-7,1,0.0068359375,0.9931640625,-0.015625,-0.3658536585365854,-0.2134146341463415,0.030487804878048783,0.016,-0.006,0.993,-0.04,-0.04,0.04,0.43,-0.99,6.23,1100,1100,1500,1500,0.08,0,3,1,1
137,181767517,1009,14,2034,-32,-11,-7,1,0.0068359375,0.9931640625,-0.015625,-0.3353658536585366,-0.2134146341463415,0.030487804878048783,0.015,-0.006,0.993,-0.04,-0.05,0.04,0.43,-0.99,6.23,1100,1100,1500,1500,0.08,0,3,1,1
138,181768525,1008,14,2034,-32,-10,-7,0,0.0068359375,0.9931640625,-0.015625,-0.30487804878048785,-0.2134146341463415,0.0,0.015,-0.006,0.993,-0.03,-0.06,0.04,0.43,-0.99,6.23,1100,1100,1500,1500,0.08,0,3,1,1
139,181769533,1008,14,2034,-32,-11,-8,0,0.0068359375,0.9931640625,-0.015625,-0.3353658536585366,-0.24390243902439027,0.0,0.015,-0.006,0.993,-0.03,-0.06,0.03,0.43,-0.99,6.23,1100,1100,1500,1500,0.08,0,3,1,1
140,181770542,1009,13,2034,-33,-12,-8,0,0.00634765625,0.9931640625,-0.01611328125,-0.3658536585365854,-0.24390243902439027,0.0,0.015,-0.006,0.993,-0.02,-0.05,0.02,0.43,-0.99,6.23,1100,1100,1500,1500,0.08,0,3,1,1
141,181771550,1008,12,2035,-34,-12,-9,0,0.005859375,0.99365234375,-0.0166015625,-0.3658536585365854,-0.27439024390243905,0.0,0.016,-0.006,0.993,-0.02,-0.04,0.01,0.43,-0.99,6.23,1100,1100,1500,1500,0.08,0,3,1,1
142,181772558,1008,11,2035,-35,-11,-9,0,0.00537109375,0.99365234375,-0.01708984375,-0.3353658536585366,-0.27439024390243905,0.0,0.016,-0.006,0.993,-0.02,-0.04,0.0,0.43,-0.99,6.23,1100,1100,1500,1500,0.08,0,3,1,1
143,181773567,1009,10,2034,-34,-12,-9,-1,0.0048828125,0.9931640625,-0.0166015625,-0.3658536585365854,-0.27439024390243905,-0.030487804878048783,0.016,-0.006,0.993,-0.01,-0.04,0.0,0.43,-0.99,6.23,1100,1100,1500,1500,0.09,0,3,1,1
144,181774575,1008,10,2033,-32,-13,-8,-1,0.0048828125,0.99267578125,-0.015625,-0.39634146341463417,-0.24390243902439027,-0.030487804878048783,0.016,-0.005,0.993,0.0,-0.02,0.0,0.43,-0.99,6.23,1100,1100,1500,1500,0.1,0,3,1,1
145,181775584,1009,10,2032,-32,-11,-8,-1,0.0048828125,0.9921875,-0.015625,-0.3353658536585366,-0.24390243902439027,-0.030487804878048783,0.016,-0.005,0.993,0.0,-0.03,0.0,0.43,-0.99,6.23,1100,1100,1500,1500,0.11,0,3,1,1
146,181776592,1008,11,2033,-34,-11,-9,-1,0.00537109375,0.99267578125,-0.0166015625,-0.3353658536585366,-0.27439024390243905,-0.030487804878048783,0.016,-0.005,0.993,0.0,-0.04,0.0,0.42,-0.99,6.23,1100,1100,1500,1500,0.11,0,3,1,1
147,181777600,1008,14,2034,-34,-11,-9,0,0.0068359375,0.9931640625,-0.0166015625,-0.3353658536585366,-0.27439024390243905,0.0,0.016,-0.005,0.993,0.0,-0.04,0.0,0.42,-0.99,6.23,1100,1100,1500,1500,0.1,0,3,1,1
148,181778609,1009,14,2035,-33,-11,-9,1,0.0068359375,0.99365234375,-0.01611328125,-0.3353658536585366,-0.27439024390243905,0.030487804878048783,0.016,-0.006,0.993,-0.02,-0.05,0.0,0.42,-0.99,6.23,1100,1100,1500,1500,0.1,0,3,1,1
149,181779617,1008,13,2035,-32,-11,-9,1,0.00634765625,0.99365234375,-0.015625,-0.3353658536585366,-0.27439024390243905,0.030487804878048783,0.016,-0.006,0.993,-0.03,-0.05,0.0,0.42,-0.99,6.23,1100,1100,1500,1500,0.1,0,3,1,1
150,181780625,1008,11,2036,-34,-13,-9,0,0.00537109375,0.994140625,-0.0166015625,-0.39634146341463417,-0.27439024390243905,0.0,0.016,-0.005,0.993,-0.02,-0.03,-0.01,0.42,-0.99,6.23,1100,1100,1500,1500,0.1,0,3,1,1
151,181781632,1007,11,2036,-35,-16,-8,0,0.00537109375,0.994140625,-0.01708984375,-0.48780487804878053,-0.24390243902439027,0.0,0.016,-0.005,0.993,-0.02,0.0,0.0,0.42,-0.99,6.23,1100,1100,1500,1500,0.1,0,3,1,1
152,181782640,1008,12,2037,-35,-15,-8,0,0.005859375,0.99462890625,-0.01708984375,-0.4573170731707317,-0.24390243902439027,0.0,0.016,-0.005,0.993,-0.02,0.02,0.0,0.42,-0.99,6.23,1100,1100,1500,1500,0.1,0,3,1,1
153,181783648,1008,13,2038,-34,-14,-8,1,0.00634765625,0.9951171875,-0.0166015625,-0.426829268292683,-0.24390243902439027,0.030487804878048783,0.016,-0.005,0.993,-0.03,0.02,0.0,0.42,-0.99,6.23,1100,1100,1500,1500,0.09,0,3,1,1
154,181784657,1009,12,2038,-34,-15,-10,1,0.005859375,0.9951171875,-0.0166015625,-0.4573170731707317,-0.30487804878048785,0.030487804878048783,0.016,-0.005,0.994,-0.03,0.03,0.0,0.42,-0.99,6.23,1100,1100,1500,1500,0.09,0,3,1,1
155,181785665,1008,11,2037,-34,-17,-10,0,0.00537109375,0.99462890625,-0.0166015625,-0.5182926829268293,-0.30487804878048785,0.0,0.016,-0.005,0.994,-0.03,0.06,-0.02,0.42,-0.99,6.23,1100,1100,1500,1500,0.1,0,3,1,1
156,181786674,1009,11,2036,-35,-16,-10,0,0.00537109375,0.994140625,-0.01708984375,-0.48780487804878053,-0.30487804878048785,0.0,0.016,-0.005,0.994,-0.02,0.07,-0.02,0.42,-0.99,6.23,1100,1100,1500,1500,0.1,0,3,1,1
157,181787682,1008,13,2033,-35,-13,-10,0,0.00634765625,0.99267578125,-0.01708984375,-0.39634146341463417,-0.30487804878048785,0.0,0.016,-0.005,0.993,-0.02,0.05,-0.03,0.42,-0.99,6.23,1100,1100,1500,1500,0.09,0,3,1,1
158,181788690,1008,13,2032,-34,-9,-10,0,0.00634765625,0.9921875,-0.0166015625,-0.27439024390243905,-0.30487804878048785,0.0,0.016,-0.005,0.993,-0.02,0.0,-0.03,0.42,-0.99,6.23,1100,1100,1500,1500,0.09,0,3,1,1
159,181789699,1009,13,2033,-33,-8,-9,-1,0.00634765625,0.99267578125,-0.01611328125,-0.24390243902439027,-0.27439024390243905,-0.030487804878048783,0.016,-0.006,0.993,-0.01,-0.05,-0.02,0.42,-0.99,6.23,1100,1100,1500,1500,0.09,0,3,1,1
160,181790707,1008,13,2034,-34,-9,-8,-3,0.00634765625,0.9931640625,-0.0166015625,-0.27439024390243905,-0.24390243902439027,-0.09146341463414635,0.016,-0.006,0.993,0.01,-0.07,-0.01,0.42,-0.99,6.23,1100,1100,1500,1500,0.08,0,3,1,1
161,181791715,1008,13,2036,-35,-10,-7,-2,0.00634765625,0.994140625,-0.01708984375,-0.30487804878048785,-0.2134146341463415,-0.06097560975609757,0.016,-0.006,0.993,0.02,-0.08,0.0,0.42,-0.99,6.23,1100,1100,1500,1500,0.08,0,3,1,1
162,181792724,1009,12,2036,-34,-12,-7,-1,0.005859375,0.994140625,-0.0166015625,-0.3658536585365854,-0.2134146341463415,-0.030487804878048783,0.016,-0.006,0.993,0.01,-0.06,0.01,0.42,-0.99,6.23,1100,1100,1500,1500,0.08,0,3,1,1
163,181793732,1008,11,2035,-33,-14,-8,0,0.00537109375,0.99365234375,-0.01611328125,-0.426829268292683,-0.24390243902439027,0.0,0.016,-0.005,0.993,0.0,-0.03,0.01,0.42,-0.99,6.23,1100,1100,1500,1500,0.09,0,3,1,1
164,181794740,1008,11,2034,-33,-14,-9,1,0.00537109375,0.9931640625,-0.01611328125,-0.426829268292683,-0.27439024390243905,0.030487804878048783,0.016,-0.005,0.993,-0.01,-0.01,0.0,0.42,-0.99,6.23,1100,1100,1500,1500,0.1,0,3,1,1
165,181795748,1008,12,2035,-32,-13,-9,1,0.005859375,0.99365234375,-0.015625,-0.39634146341463417,-0.27439024390243905,0.030487804878048783,0.016,-0.005,0.993,-0.02,0.0,0.0,0.42,-0.99,6.23,1100,1100,1500,1500,0.1,0,3,1,1
166,181796756,1008,13,2036,-33,-12,-9,1,0.00634765625,0.994140625,-0.01611328125,-0.3658536585365854,-0.27439024390243905,0.030487804878048783,0.016,-0.005,0.993,-0.03,-0.01,0.0,0.42,-0.99,6.23,1100,1100,1500,1500,0.1,0,3,1,1
167,181797765,1009,13,2036,-36,-13,-9,2,0.00634765625,0.994140625,-0.017578125,-0.39634146341463417,-0.27439024390243905,0.06097560975609757,0.016,-0.006,0.993,-0.05,0.0,0.0,0.42,-0.99,6.23,1100,1100,1500,1500,0.09,0,3,1,1
168,181798773,1008,12,2034,-35,-13,-7,1,0.005859375,0.9931640625,-0.01708984375,-0.39634146341463417,-0.2134146341463415,0.030487804878048783,0.016,-0.005,0.993,-0.05,0.0,0.01,0.42,-0.99,6.23,1100,1100,1500,1500,0.09,0,3,1,1
169,181799781,1008,12,2033,-34,-13,-7,-1,0.005859375,0.99267578125,-0.0166015625,-0.39634146341463417,-0.2134146341463415,-0.030487804878048783,0.016,-0.005,0.993,-0.03,0.0,0.02,0.42,-0.99,6.23,1100,1100,1500,1500,0.09,0,3,1,1
170,181800790,1009,12,2033,-34,-13,-8,-2,0.005859375,0.99267578125,-0.0166015625,-0.39634146341463417,-0.24390243902439027,-0.06097560975609757,0.016,-0.005,0.993,0.0,0.0,0.02,0.42,-0.99,6.23,1100,1100,1500,1500,0.09,0,3,1,1
171,181801798,1008,13,2034,-34,-11,-7,-1,0.00634765625,0.9931640625,-0.0166015625,-0.3353658536585366,-0.2134146341463415,-0.030487804878048783,0.016,-0.006,0.993,0.0,-0.02,0.02,0.42,-0.99,6.23,1100,1100,1500,1500,0.09,0,3,1,1
172,181802806,1008,13,2033,-34,-12,-7,0,0.00634765625,0.99267578125,-0.0166015625,-0.3658536585365854,-0.2134146341463415,0.0,0.016,-0.006,0.993,0.0,-0.02,0.03,0.42,-0.99,6.23,1100,1100,1500,1500,0.08,0,3,1,1
173,181803815,1009,14,2033,-34,-13,-7,1,0.0068359375,0.99267578125,-0.0166015625,-0.39634146341463417,-0.2134146341463415,0.030487804878048783,0.016,-0.006,0.993,-0.02,-0.01,0.03,0.42,-0.99,6.23,1100,1100,1500,1500,0.08,0,3,1,1
174,181804823,1008,13,2034,-33,-14,-8,0,0.00634765625,0.9931640625,-0.01611328125,-0.426829268292683,-0.24390243902439027,0.0,0.016,-0.006,0.993,-0.02,0.0,0.03,0.42,-0.99,6.23,1100,1100,1500,1500,0.08,0,3,1,1
175,181805829,1006,13,2035,-33,-15,-8,0,0.00634765625,0.99365234375,-0.01611328125,-0.4573170731707317,-0.24390243902439027,0.0,0.016,-0.006,0.993,-0.02,0.02,0.02,0.42,-0.99,6.23,1100,1100,1500,1500,0.08,0,3,1,1
176,181806837,1008,14,2036,-33,-15,-9,0,0.0068359375,0.994140625,-0.01611328125,-0.4573170731707317,-0.27439024390243905,0.0,0.016,-0.006,0.993,-0.02,0.03,0.01,0.42,-0.99,6.23,1100,1100,1500,1500,0.08,0,3,1,1
177,181807846,1009,15,2037,-33,-13,-9,0,0.00732421875,0.99462890625,-0.01611328125,-0.39634146341463417,-0.27439024390243905,0.0,0.016,-0.006,0.993,-0.02,0.02,0.0,0.42,-0.99,6.23,1100,1100,1500,1500,0.07,0,3,1,1
178,181808854,1008,16,2037,-34,-11,-9,0,0.0078125,0.99462890625,-0.0166015625,-0.3353658536585366,-0.27439024390243905,0.0,0.016,-0.006,0.993,-0.02,0.0,0.0,0.42,-0.99,6.23,1100,1100,1500,1500,0.06,0,3,1,1
179,181809863,1009,16,2037,-35,-12,-10,0,0.0078125,0.99462890625,-0.01708984375,-0.3658536585365854,-0.30487804878048785,0.0,0.016,-0.006,0.993,-0.02,-0.01,-0.01,0.42,-0.99,6.23,1100,1100,1500,1500,0.05,0,3,1,1
180,181810871,1008,15,2036,-36,-14,-10,0,0.00732421875,0.994140625,-0.017578125,-0.426829268292683,-0.30487804878048785,0.0,0.016,-0.006,0.993,-0.02,0.0,-0.02,0.42,-0.99,6.23,1100,1100,1500,1500,0.04,0,3,1,1
181,181811879,1008,14,2035,-36,-15,-9,0,0.0068359375,0.99365234375,-0.017578125,-0.4573170731707317,-0.27439024390243905,0.0,0.016,-0.006,0.993,-0.02,0.02,-0.02,0.42,-0.99,6.23,1100,1100,1500,1500,0.03,0,3,1,1
182,181812888,1009,14,2035,-36,-14,-8,0,0.0068359375,0.99365234375,-0.017578125,-0.426829268292683,-0.24390243902439027,0.0,0.016,-0.006,0.993,-0.02,0.02,0.0,0.42,-0.99,6.23,1100,1100,1500,1500,0.03,0,3,1,1
183,181813896,1008,15,2035,-36,-14,-8,0,0.00732421875,0.99365234375,-0.017578125,-0.426829268292683,-0.24390243902439027,0.0,0.017,-0.006,0.993,-0.02,0.02,0.0,0.42,-0.99,6.23,1100,1100,1500,1500,0.02,0,3,1,1
184,181814904,1008,17,2034,-35,-14,-8,0,0.00830078125,0.9931640625,-0.01708984375,-0.426829268292683,-0.24390243902439027,0.0,0.017,-0.007,0.993,-0.02,0.02,0.0,0.42,-0.99,6.23,1100,1100,1500,1500,0.01,0,3,1,1
185,181815910,1006,17,2034,-33,-16,-8,0,0.00830078125,0.9931640625,-0.01611328125,-0.48780487804878053,-0.24390243902439027,0.0,0.016,-0.007,0.993,-0.02,0.05,0.0,0.42,-0.99,6.23,1100,1100,1500,1500,0.02,0,3,1,1
186,181816919,1009,15,2035,-32,-16,-9,0,0.00732421875,0.99365234375,-0.015625,-0.48780487804878053,-0.27439024390243905,0.0,0.016,-0.007,0.993,-0.02,0.06,0.0,0.42,-0.99,6.23,1100,1100,1500,1500,0.03,0,3,1,1
187,181817927,1008,12,2036,-31,-14,-9,0,0.005859375,0.994140625,-0.01513671875,-0.426829268292683,-0.27439024390243905,0.0,0.016,-0.007,0.993,-0.02,0.05,0.0,0.42,-0.99,6.23,1100,1100,1500,1500,0.04,0,3,1,1
188,181818935,1008,12,2035,-30,-12,-8,-1,0.005859375,0.99365234375,-0.0146484375,-0.3658536585365854,-0.24390243902439027,-0.030487804878048783,0.016,-0.006,0.993,-0.01,0.02,0.0,0.42,-0.99,6.23,1100,1100,1500,1500,0.06,0,3,1,1
189,181819944,1009,13,2033,-28,-12,-7,-1,0.00634765625,0.99267578125,-0.013671875,-0.3658536585365854,-0.2134146341463415,-0.030487804878048783,0.015,-0.006,0.993,0.0,0.0,0.01,0.42,-0.99,6.23,1100,1100,1500,1500,0.09,0,3,1,1
190,181820952,1008,13,2033,-26,-13,-7,-1,0.00634765625,0.99267578125,-0.0126953125,-0.39634146341463417,-0.2134146341463415,-0.030487804878048783,0.015,-0.006,0.993,0.0,0.0,0.02,0.42,-0.99,6.23,1100,1100,1500,1500,0.11,0,3,1,1
191,181821961,1009,12,2033,-26,-14,-8,0,0.005859375,0.99267578125,-0.0126953125,-0.426829268292683,-0.24390243902439027,0.0,0.014,-0.006,0.993,0.0,0.01,0.02,0.42,-0.99,6.23,1100,1100,1500,1500,0.14,0,3,1,1
192,181822969,1008,12,2033,-28,-14,-10,0,0.005859375,0.99267578125,-0.013671875,-0.426829268292683,-0.30487804878048785,0.0,0.014,-0.006,0.993,-0.01,0.02,0.0,0.42,-0.99,6.23,1100,1100,1500,1500,0.15,0,3,1,1
193,181823977,1008,13,2034,-29,-13,-10,0,0.00634765625,0.9931640625,-0.01416015625,-0.39634146341463417,-0.30487804878048785,0.0,0.014,-0.006,0.993,-0.01,0.01,-0.01,0.42,-0.99,6.23,1100,1100,1500,1500,0.16,0,3,1,1
194,181824986,1009,14,2035,-29,-13,-9,1,0.0068359375,0.99365234375,-0.01416015625,-0.39634146341463417,-0.27439024390243905,0.030487804878048783,0.014,-0.006,0.993,-0.02,0.01,-0.01,0.42,-0.99,6.23,1100,1100,1500,1500,0.16,0,3,1,1
195,181825994,1008,14,2035,-30,-12,-9,1,0.0068359375,0.99365234375,-0.0146484375,-0.3658536585365854,-0.27439024390243905,0.030487804878048783,0.014,-0.006,0.993,-0.03,0.0,-0.01,0.42,-0.99,6.23,1100,1100,1500,1500,0.16,0,3,1,1
196,181827002,1008,12,2036,-31,-12,-8,0,0.005859375,0.994140625,-0.01513671875,-0.3658536585365854,-0.24390243902439027,0.0,0.014,-0.006,0.993,-0.03,-0.01,0.0,0.42,-0.99,6.23,1100,1100,1500,1500,0.15,0,3,1,1
197,181828011,1009,11,2036,-32,-12,-7,0,0.00537109375,0.994140625,-0.015625,-0.3658536585365854,-0.2134146341463415,0.0,0.014,-0.006,0.993,-0.02,-0.01,0.01,0.42,-0.99,6.23,1100,1100,1500,1500,0.15,0,3,1,1
198,181829017,1006,12,2037,-32,-12,-8,1,0.005859375,0.99462890625,-0.015625,-0.3658536585365854,-0.24390243902439027,0.030487804878048783,0.014,-0.006,0.993,-0.03,-0.02,0.01,0.42,-0.99,6.23,1100,1100,1500,1500,0.15,0,3,1,1
199,181830025,1008,12,2037,-32,-12,-9,0,0.005859375,0.99462890625,-0.015625,-0.3658536585365854,-0.27439024390243905,0.0,0.015,-0.006,0.993,-0.03,-0.02,0.0,0.42,-0.99,6.23,1100,1100,1500,1500,0.14,0,3,1,1
200,181831034,1009,13,2034,-32,-14,-9,0,0.00634765625,0.9931640625,-0.015625,-0.426829268292683,-0.27439024390243905,0.0,0.015,-0.006,0.993,-0.02,0.0,0.0,0.42,-0.99,6.23,1100,1100,1500,1500,0.14,0,3,1,1
201,181832042,1008,13,2033,-32,-15,-9,0,0.00634765625,0.99267578125,-0.015625,-0.4573170731707317,-0.27439024390243905,0.0,0.015,-0.006,0.993,-0.02,0.01,0.0,0.42,-0.99,6.23,1100,1100,1500,1500,0.13,0,3,1,1
202,181833051,1009,13,2034,-33,-15,-9,1,0.00634765625,0.9931640625,-0.01611328125,-0.4573170731707317,-0.27439024390243905,0.030487804878048783,0.015,-0.006,0.993,-0.03,0.03,0.0,0.42,-0.99,6.23,1100,1100,1500,1500,0.12,0,3,1,1
203,181834059,1008,13,2035,-33,-13,-9,0,0.00634765625,0.99365234375,-0.01611328125,-0.39634146341463417,-0.27439024390243905,0.0,0.015,-0.006,0.993,-0.02,0.02,-0.01,0.42,-0.99,6.23,1100,1100,1500,1500,0.12,0,3,1,1
204,181835067,1008,12,2038,-34,-12,-9,0,0.005859375,0.9951171875,-0.0166015625,-0.3658536585365854,-0.27439024390243905,0.0,0.015,-0.006,0.993,-0.02,0.0,-0.01,0.42,-0.99,6.23,1100,1100,1500,1500,0.11,0,3,1,1
205,181836075,1008,12,2039,-34,-12,-9,0,0.005859375,0.99560546875,-0.0166015625,-0.3658536585365854,-0.27439024390243905,0.0,0.015,-0.006,0.994,-0.02,0.0,-0.01,0.42,-0.99,6.23,1100,1100,1500,1500,0.11,0,3,1,1
206,181837084,1009,12,2038,-32,-14,-9,1,0.005859375,0.9951171875,-0.015625,-0.426829268292683,-0.27439024390243905,0.030487804878048783,0.015,-0.006,0.994,-0.03,0.0,-0.01,0.42,-0.99,6.23,1100,1100,1500,1500,0.11,0,3,1,1
207,181838091,1007,11,2035,-31,-16,-9,2,0.00537109375,0.99365234375,-0.01513671875,-0.48780487804878053,-0.27439024390243905,0.06097560975609757,0.015,-0.005,0.994,-0.04,0.03,-0.01,0.42,-0.99,6.23,1100,1100,1500,1500,0.12,0,3,1,1
208,181839100,1009,11,2033,-31,-16,-9,2,0.00537109375,0.99267578125,-0.01513671875,-0.48780487804878053,-0.27439024390243905,0.06097560975609757,0.015,-0.005,0.993,-0.06,0.05,-0.01,0.42,-0.99,6.23,1100,1100,1500,1500,0.13,0,3,1,1
209,181840108,1008,11,2033,-31,-16,-9,2,0.00537109375,0.99267578125,-0.01513671875,-0.48780487804878053,-0.27439024390243905,0.06097560975609757,0.015,-0.005,0.993,-0.06,0.06,-0.01,0.42,-0.99,6.23,1100,1100,1500,1500,0.13,0,3,1,1
210,181841116,1008,11,2033,-33,-15,-9,1,0.00537109375,0.99267578125,-0.01611328125,-0.4573170731707317,-0.27439024390243905,0.030487804878048783,0.015,-0.005,0.993,-0.06,0.06,-0.01,0.42,-0.99,6.23,1100,1100,1500,1500,0.13,0,3,1,1
211,181842125,1009,12,2033,-33,-13,-8,2,0.005859375,0.99267578125,-0.01611328125,-0.39634146341463417,-0.24390243902439027,0.06097560975609757,0.015,-0.005,0.993,-0.06,0.04,0.0,0.42,-0.99,6.23,1100,1100,1500,1500,0.13,0,3,1,1
212,181843133,1008,15,2034,-31,-13,-7,1,0.00732421875,0.9931640625,-0.01513671875,-0.39634146341463417,-0.2134146341463415,0.030487804878048783,0.015,-0.006,0.993,-0.06,0.03,0.01,0.42,-0.99,6.23,1100,1100,1500,1500,0.12,0,3,1,1
213,181844141,1008,15,2035,-29,-13,-7,2,0.00732421875,0.99365234375,-0.01416015625,-0.39634146341463417,-0.2134146341463415,0.06097560975609757,0.015,-0.006,0.993,-0.06,0.02,0.02,0.42,-0.99,6.23,1100,1100,1500,1500,0.12,0,3,1,1
214,181845150,1009,13,2035,-29,-13,-8,2,0.00634765625,0.99365234375,-0.01416015625,-0.39634146341463417,-0.24390243902439027,0.06097560975609757,0.015,-0.006,0.993,-0.07,0.01,0.02,0.42,-0.99,6.23,1100,1100,1500,1500,0.13,0,3,1,1
215,181846158,1008,13,2034,-31,-13,-9,2,0.00634765625,0.9931640625,-0.01513671875,-0.39634146341463417,-0.27439024390243905,0.06097560975609757,0.015,-0.006,0.993,-0.07,0.01,0.0,0.42,-0.99,6.23,1100,1100,1500,1500,0.13,0,3,1,1
216,181847166,1008,14,2034,-33,-13,-9,-1,0.0068359375,0.9931640625,-0.01611328125,-0.39634146341463417,-0.27439024390243905,-0.030487804878048783,0.015,-0.006,0.993,-0.04,0.0,0.0,0.42,-0.99,6.23,1100,1100,1500,1500,0.12,0,3,1,1
217,181848175,1009,15,2035,-34,-12,-9,-2,0.00732421875,0.99365234375,-0.0166015625,-0.3658536585365854,-0.27439024390243905,-0.06097560975609757,0.015,-0.006,0.993,-0.01,0.0,0.0,0.42,-0.99,6.23,1100,1100,1500,1500,0.11,0,3,1,1
218,181849183,1008,15,2035,-34,-11,-9,-1,0.00732421875,0.99365234375,-0.0166015625,-0.3353658536585366,-0.27439024390243905,-0.030487804878048783,0.015,-0.006,0.993,0.0,-0.02,0.0,0.42,-0.99,6.23,1100,1100,1500,1500,0.09,0,3,1,1
219,181850192,1009,14,2034,-33,-12,-9,1,0.0068359375,0.9931640625,-0.01611328125,-0.3658536585365854,-0.27439024390243905,0.030487804878048783,0.015,-0.006,0.993,-0.02,-0.02,0.0,0.42,-0.99,6.23,1100,1100,1500,1500,0.09,0,3,1,1
220,181851200,1008,14,2034,-32,-13,-10,1,0.0068359375,0.9931640625,-0.015625,-0.39634146341463417,-0.30487804878048785,0.030487804878048783,0.015,-0.006,0.993,-0.03,-0.01,-0.02,0.42,-0.99,6.23,1100,1100,1500,1500,0.09,0,3,1,1
221,181852208,1008,14,2034,-31,-13,-10,1,0.0068359375,0.9931640625,-0.01513671875,-0.39634146341463417,-0.30487804878048785,0.030487804878048783,0.015,-0.006,0.993,-0.03,-0.01,-0.02,0.42,-0.99,6.23,1100,1100,1500,1500,0.09,0,3,1,1
222,181853217,1009,13,2034,-31,-12,-9,1,0.00634765625,0.9931640625,-0.01513671875,-0.3658536585365854,-0.27439024390243905,0.030487804878048783,0.015,-0.006,0.993,-0.04,-0.01,-0.02,0.42,-0.99,6.23,1100,1100,1500,1500,0.1,0,3,1,1
223,181854225,1008,12,2034,-33,-12,-9,0,0.005859375,0.9931640625,-0.01611328125,-0.3658536585365854,-0.27439024390243905,0.0,0.015,-0.006,0.993,-0.03,-0.02,-0.02,0.42,-0.99,6.23,1100,1100,1500,1500,0.1,0,3,1,1
224,181855233,1008,11,2035,-34,-12,-10,0,0.00537109375,0.99365234375,-0.0166015625,-0.3658536585365854,-0.30487804878048785,0.0,0.015,-0.006,0.993,-0.03,-0.02,-0.02,0.42,-0.99,6.23,1100,1100,1500,1500,0.1,0,3,1,1
225,181856242,1009,12,2037,-33,-13,-10,0,0.005859375,0.99462890625,-0.01611328125,-0.39634146341463417,-0.30487804878048785,0.0,0.015,-0.006,0.993,-0.02,-0.01,-0.03,0.42,-0.99,6.23,1100,1100,1500,1500,0.1,0,3,1,1
226,181857250,1008,12,2038,-32,-14,-10,0,0.005859375,0.9951171875,-0.015625,-0.426829268292683,-0.30487804878048785,0.0,0.015,-0.006,0.993,-0.02,0.0,-0.03,0.42,-0.99,6.23,1100,1100,1500,1500,0.1,0,3,1,1
227,181858258,1008,12,2038,-32,-15,-9,0,0.005859375,0.9951171875,-0.015625,-0.4573170731707317,-0.27439024390243905,0.0,0.015,-0.006,0.994,-0.02,0.02,-0.02,0.42,-0.99,6.23,1100,1100,1500,1500,0.11,0,3,1,1
228,181859265,1007,13,2035,-33,-14,-8,1,0.00634765625,0.99365234375,-0.01611328125,-0.426829268292683,-0.24390243902439027,0.030487804878048783,0.015,-0.006,0.993,-0.03,0.02,-0.01,0.42,-0.99,6.23,1100,1100,1500,1500,0.1,0,3,1,1
229,181860273,1008,14,2033,-33,-15,-7,0,0.0068359375,0.99267578125,-0.01611328125,-0.4573170731707317,-0.2134146341463415,0.0,0.015,-0.006,0.993,-0.02,0.03,0.0,0.42,-0.99,6.23,1100,1100,1500,1500,0.1,0,3,1,1
230,181861282,1009,14,2034,-34,-16,-7,0,0.0068359375,0.9931640625,-0.0166015625,-0.48780487804878053,-0.2134146341463415,0.0,0.015,-0.006,0.993,-0.02,0.05,0.01,0.42,-0.99,6.23,1100,1100,1500,1500,0.09,0,3,1,1
231,181862290,1008,14,2036,-36,-15,-8,0,0.0068359375,0.994140625,-0.017578125,-0.4573170731707317,-0.24390243902439027,0.0,0.016,-0.006,0.993,-0.02,0.05,0.01,0.42,-0.99,6.23,1100,1100,1500,1500,0.07,0,3,1,1
232,181863298,1008,15,2036,-37,-14,-9,1,0.00732421875,0.994140625,-0.01806640625,-0.426829268292683,-0.27439024390243905,0.030487804878048783,0.016,-0.006,0.993,-0.03,0.04,0.0,0.42,-0.99,6.23,1100,1100,1500,1500,0.06,0,3,1,1
233,181864307,1009,14,2034,-35,-15,-9,2,0.0068359375,0.9931640625,-0.01708984375,-0.4573170731707317,-0.27439024390243905,0.06097560975609757,0.016,-0.006,0.993,-0.04,0.05,0.0,0.42,-0.99,6.23,1100,1100,1500,1500,0.05,0,3,1,1
234,181865315,1008,12,2035,-33,-15,-9,1,0.005859375,0.99365234375,-0.01611328125,-0.4573170731707317,-0.27439024390243905,0.030487804878048783,0.016,-0.006,0.993,-0.05,0.05,0.0,0.42,-0.99,6.23,1100,1100,1500,1500,0.06,0,3,1,1
235,181866324,1009,11,2036,-32,-12,-8,-1,0.00537109375,0.994140625,-0.015625,-0.3658536585365854,-0.24390243902439027,-0.030487804878048783,0.016,-0.006,0.993,-0.03,0.02,0.0,0.42,-0.99,6.23,1100,1100,1500,1500,0.07,0,3,1,1
236,181867332,1008,12,2036,-34,-10,-7,-1,0.005859375,0.994140625,-0.0166015625,-0.30487804878048785,-0.2134146341463415,-0.030487804878048783,0.016,-0.006,0.993,-0.01,-0.01,0.01,0.42,-0.99,6.23,1100,1100,1500,1500,0.08,0,3,1,1
237,181868340,1008,12,2036,-35,-10,-8,0,0.005859375,0.994140625,-0.01708984375,-0.30487804878048785,-0.24390243902439027,0.0,0.016,-0.006,0.993,-0.01,-0.03,0.01,0.42,-0.99,6.23,1100,1100,1500,1500,0.08,0,3,1,1
238,181869349,1009,14,2037,-34,-12,-7,1,0.0068359375,0.99462890625,-0.0166015625,-0.3658536585365854,-0.2134146341463415,0.030487804878048783,0.016,-0.006,0.993,-0.02,-0.03,0.02,0.42,-0.99,6.23,1100,1100,1500,1500,0.07,0,3,1,1
239,181870357,1008,14,2037,-31,-14,-7,1,0.0068359375,0.99462890625,-0.01513671875,-0.426829268292683,-0.2134146341463415,0.030487804878048783,0.016,-0.006,0.994,-0.03,-0.01,0.03,0.42,-0.99,6.23,1100,1100,1500,1500,0.07,0,3,1,1
240,181871365,1008,13,2035,-31,-16,-7,0,0.00634765625,0.99365234375,-0.01513671875,-0.48780487804878053,-0.2134146341463415,0.0,0.016,-0.006,0.994,-0.03,0.02,0.03,0.42,-0.99,6.23,1100,1100,1500,1500,0.08,0,3,1,1
241,181872374,1009,13,2035,-32,-16,-9,0,0.00634765625,0.99365234375,-0.015625,-0.48780487804878053,-0.27439024390243905,0.0,0.016,-0.006,0.993,-0.02,0.04,0.02,0.42,-0.99,6.23,1100,1100,1500,1500,0.09,0,3,1,1
242,181873382,1008,14,2035,-33,-15,-9,0,0.0068359375,0.99365234375,-0.01611328125,-0.4573170731707317,-0.27439024390243905,0.0,0.016,-0.006,0.993,-0.02,0.05,0.0,0.42,-0.99,6.23,1100,1100,1500,1500,0.08,0,3,1,1
243,181874390,1008,14,2035,-33,-15,-8,1,0.0068359375,0.99365234375,-0.01611328125,-0.4573170731707317,-0.24390243902439027,0.030487804878048783,0.016,-0.006,0.993,-0.03,0.05,0.01,0.42,-0.99,6.23,1100,1100,1500,1500,0.08,0,3,1,1
244,181875399,1009,13,2036,-34,-15,-7,1,0.00634765625,0.994140625,-0.0166015625,-0.4573170731707317,-0.2134146341463415,0.030487804878048783,0.016,-0.006,0.993,-0.04,0.05,0.02,0.42,-0.99,6.23,1100,1100,1500,1500,0.08,0,3,1,1
245,181876407,1008,14,2036,-35,-14,-6,0,0.0068359375,0.994140625,-0.01708984375,-0.426829268292683,-0.1829268292682927,0.0,0.016,-0.006,0.993,-0.03,0.04,0.04,0.42,-0.99,6.23,1100,1100,1500,1500,0.07,0,3,1,1
246,181877416,1009,14,2035,-35,-14,-6,0,0.0068359375,0.99365234375,-0.01708984375,-0.426829268292683,-0.1829268292682927,0.0,0.016,-0.006,0.993,-0.02,0.04,0.05,0.42,-0.99,6.23,1100,1100,1500,1500,0.06,0,3,1,1
247,181878424,1008,13,2034,-34,-13,-8,1,0.00634765625,0.9931640625,-0.0166015625,-0.39634146341463417,-0.24390243902439027,0.030487804878048783,0.016,-0.006,0.993,-0.03,0.02,0.04,0.42,-0.99,6.23,1100,1100,1500,1500,0.06,0,3,1,1
248,181879432,1008,14,2034,-35,-13,-10,0,0.0068359375,0.9931640625,-0.01708984375,-0.39634146341463417,-0.30487804878048785,0.0,0.016,-0.006,0.993,-0.03,0.02,0.01,0.42,-0.99,6.23,1100,1100,1500,1500,0.06,0,3,1,1
249,181880441,1009,14,2034,-35,-14,-11,-1,0.0068359375,0.9931640625,-0.01708984375,-0.426829268292683,-0.3353658536585366,-0.030487804878048783,0.016,-0.006,0.993,-0.01,0.02,-0.01,0.42,-0.99,6.23,1100,1100,1500,1500,0.05,0,3,1,1
250,181881449,1008,15,2034,-35,-13,-9,-1,0.00732421875,0.9931640625,-0.01708984375,-0.39634146341463417,-0.27439024390243905,-0.030487804878048783,0.016,-0.006,0.993,0.0,0.01,-0.01,0.42,-0.99,6.23,1100,1100,1500,1500,0.04,0,3,1,1
251,181882457,1008,15,2034,-37,-12,-9,0,0.00732421875,0.9931640625,-0.01806640625,-0.3658536585365854,-0.27439024390243905,0.0,0.016,-0.006,0.993,-0.01,0.0,-0.01,0.42,-0.99,6.23,1100,1100,1500,1500,0.03,0,3,1,1
252,181883466,1009,14,2034,-36,-13,-10,1,0.0068359375,0.9931640625,-0.017578125,-0.39634146341463417,-0.30487804878048785,0.030487804878048783,0.017,-0.006,0.993,-0.02,0.0,-0.02,0.42,-0.99,6.23,1100,1100,1500,1500,0.03,0,3,1,1
253,181884474,1008,13,2034,-35,-16,-10,1,0.00634765625,0.9931640625,-0.01708984375,-0.48780487804878053,-0.30487804878048785,0.030487804878048783,0.017,-0.006,0.993,-0.03,0.03,-0.03,0.42,-0.99,6.23,1100,1100,1500,1500,0.04,0,3,1,1
254,181885480,1006,13,2034,-33,-15,-9,2,0.00634765625,0.9931640625,-0.01611328125,-0.4573170731707317,-0.27439024390243905,0.06097560975609757,0.016,-0.006,0.993,-0.05,0.04,-0.02,0.42,-0.99,6.23,1100,1100,1500,1500,0.04,0,3,1,1
255,181886489,1009,11,2033,-32,-13,-9,1,0.00537109375,0.99267578125,-0.015625,-0.39634146341463417,-0.27439024390243905,0.030487804878048783,0.016,-0.006,0.993,-0.05,0.02,-0.02,0.42,-0.99,6.23,1100,1100,1500,1500,0.06,0,3,1,1
256,181887497,1008,10,2033,-32,-13,-8,1,0.0048828125,0.99267578125,-0.015625,-0.39634146341463417,-0.24390243902439027,0.030487804878048783,0.016,-0.006,0.993,-0.05,0.01,0.0,0.42,-0.99,6.23,1100,1100,1500,1500,0.07,0,3,1,1
257,181888505,1008,12,2034,-32,-12,-8,2,0.005859375,0.9931640625,-0.015625,-0.3658536585365854,-0.24390243902439027,0.06097560975609757,0.016,-0.006,0.993,-0.06,0.0,0.0,0.42,-0.99,6.23,1100,1100,1500,1500,0.08,0,3,1,1
258,181889514,1009,13,2035,-33,-11,-8,1,0.00634765625,0.99365234375,-0.01611328125,-0.3353658536585366,-0.24390243902439027,0.030487804878048783,0.016,-0.006,0.993,-0.05,-0.01,0.0,0.42,-0.99,6.23,1100,1100,1500,1500,0.08,0,3,1,1
259,181890522,1008,15,2035,-33,-12,-9,1,0.00732421875,0.99365234375,-0.01611328125,-0.3658536585365854,-0.27439024390243905,0.030487804878048783,0.016,-0.006,0.993,-0.05,-0.02,0.0,0.42,-0.99,6.23,1100,1100,1500,1500,0.07,0,3,1,1
260,181891530,1008,15,2035,-33,-12,-9,2,0.00732421875,0.99365234375,-0.01611328125,-0.3658536585365854,-0.27439024390243905,0.06097560975609757,0.016,-0.006,0.993,-0.06,-0.02,0.0,0.42,-0.99,6.23,1100,1100,1500,1500,0.07,0,3,1,1
261,181892539,1009,14,2035,-36,-11,-9,2,0.0068359375,0.99365234375,-0.017578125,-0.3353658536585366,-0.27439024390243905,0.06097560975609757,0.016,-0.006,0.993,-0.07,-0.03,0.0,0.42,-0.99,6.23,1100,1100,1500,1500,0.06,0,3,1,1
262,181893547,1008,14,2035,-37,-13,-10,1,0.0068359375,0.99365234375,-0.01806640625,-0.39634146341463417,-0.30487804878048785,0.030487804878048783,0.016,-0.006,0.993,-0.06,-0.02,-0.02,0.42,-0.99,6.23,1100,1100,1500,1500,0.05,0,3,1,1
263,181894556,1009,15,2035,-36,-14,-10,1,0.00732421875,0.99365234375,-0.017578125,-0.426829268292683,-0.30487804878048785,0.030487804878048783,0.016,-0.006,0.993,-0.05,0.0,-0.02,0.42,-0.99,6.23,1100,1100,1500,1500,0.04,0,3,1,1
264,181895562,1006,15,2035,-37,-13,-10,0,0.00732421875,0.99365234375,-0.01806640625,-0.39634146341463417,-0.30487804878048785,0.0,0.017,-0.006,0.993,-0.04,0.0,-0.03,0.42,-0.99,6.23,1100,1100,1500,1500,0.03,0,3,1,1
265,181896570,1008,14,2036,-37,-12,-10,-1,0.0068359375,0.994140625,-0.01806640625,-0.3658536585365854,-0.30487804878048785,-0.030487804878048783,0.017,-0.006,0.993,-0.02,-0.01,-0.03,0.42,-0.99,6.23,1100,1100,1500,1500,0.03,0,3,1,1
266,181897579,1009,13,2037,-37,-11,-10,-1,0.00634765625,0.99462890625,-0.01806640625,-0.3353658536585366,-0.30487804878048785,-0.030487804878048783,0.017,-0.006,0.993,-0.01,-0.02,-0.03,0.42,-0.99,6.23,1100,1100,1500,1500,0.04,0,3,1,1
267,181898587,1008,13,2036,-36,-12,-9,-1,0.00634765625,0.994140625,-0.017578125,-0.3658536585365854,-0.27439024390243905,-0.030487804878048783,0.017,-0.006,0.993,0.0,-0.02,-0.03,0.42,-0.99,6.23,1100,1100,1500,1500,0.04,0,3,1,1
268,181899595,1008,13,2035,-35,-14,-8,-1,0.00634765625,0.99365234375,-0.01708984375,-0.426829268292683,-0.24390243902439027,-0.030487804878048783,0.017,-0.006,0.993,0.0,0.0,-0.01,0.42,-0.99,6.23,1100,1100,1500,1500,0.04,0,3,1,1
269,181900604,1009,12,2035,-35,-13,-8,0,0.005859375,0.99365234375,-0.01708984375,-0.39634146341463417,-0.24390243902439027,0.0,0.017,-0.006,0.993,0.0,0.0,0.0,0.42,-0.99,6.23,1100,1100,1500,1500,0.05,0,3,1,1
270,181901612,1008,12,2035,-36,-14,-8,0,0.005859375,0.99365234375,-0.017578125,-0.426829268292683,-0.24390243902439027,0.0,0.017,-0.006,0.993,-0.01,0.0,0.0,0.42,-0.99,6.23,1100,1100,1500,1500,0.06,0,3,1,1
271,181902620,1008,11,2037,-34,-15,-7,0,0.00537109375,0.99462890625,-0.0166015625,-0.4573170731707317,-0.2134146341463415,0.0,0.017,-0.006,0.993,-0.01,0.02,0.01,0.42,-0.99,6.23,1100,1100,1500,1500,0.07,0,3,1,1
272,181903629,1009,12,2038,-33,-16,-8,0,0.005859375,0.9951171875,-0.01611328125,-0.48780487804878053,-0.24390243902439027,0.0,0.017,-0.006,0.994,-0.01,0.04,0.01,0.42,-0.99,6.23,1100,1100,1500,1500,0.07,0,3,1,1
273,181904637,1008,14,2038,-34,-15,-9,-1,0.0068359375,0.9951171875,-0.0166015625,-0.4573170731707317,-0.27439024390243905,-0.030487804878048783,0.016,-0.006,0.994,0.0,0.05,0.0,0.42,-0.99,6.23,1100,1100,1500,1500,0.06,0,3,1,1
274,181905644,1007,16,2037,-35,-12,-11,0,0.0078125,0.99462890625,-0.01708984375,-0.3658536585365854,-0.3353658536585366,0.0,0.016,-0.006,0.994,-0.01,0.02,-0.02,0.42,-0.99,6.23,1100,1100,1500,1500,0.05,0,3,1,1
275,181906652,1008,15,2035,-36,-10,-11,1,0.00732421875,0.99365234375,-0.017578125,-0.30487804878048785,-0.3353658536585366,0.030487804878048783,0.017,-0.006,0.994,-0.02,-0.01,-0.03,0.42,-0.99,6.23,1100,1100,1500,1500,0.04,0,3,1,1
276,181907661,1009,14,2035,-37,-10,-10,0,0.0068359375,0.99365234375,-0.01806640625,-0.30487804878048785,-0.30487804878048785,0.0,0.017,-0.006,0.994,-0.02,-0.03,-0.04,0.42,-0.99,6.23,1100,1100,1500,1500,0.04,0,3,1,1
277,181908669,1008,13,2035,-37,-11,-8,-2,0.00634765625,0.99365234375,-0.01806640625,-0.3353658536585366,-0.24390243902439027,-0.06097560975609757,0.017,-0.006,0.994,0.0,-0.04,-0.02,0.42,-0.99,6.23,1100,1100,1500,1500,0.04,0,3,1,1
278,181909677,1008,14,2035,-36,-11,-7,-1,0.0068359375,0.99365234375,-0.017578125,-0.3353658536585366,-0.2134146341463415,-0.030487804878048783,0.017,-0.006,0.993,0.0,-0.05,0.0,0.42,-0.99,6.23,1100,1100,1500,1500,0.04,0,3,1,1
279,181910686,1009,14,2035,-36,-11,-7,0,0.0068359375,0.99365234375,-0.017578125,-0.3353658536585366,-0.2134146341463415,0.0,0.017,-0.006,0.993,0.0,-0.05,0.01,0.42,-0.99,6.23,1100,1100,1500,1500,0.04,0,3,1,1
280,181911694,1008,12,2034,-35,-11,-8,0,0.005859375,0.9931640625,-0.01708984375,-0.3353658536585366,-0.24390243902439027,0.0,0.017,-0.006,0.993,-0.01,-0.05,0.01,0.42,-0.99,6.23,1100,1100,1500,1500,0.05,0,3,1,1
281,181912702,1008,13,2033,-34,-12,-8,-1,0.00634765625,0.99267578125,-0.0166015625,-0.3658536585365854,-0.24390243902439027,-0.030487804878048783,0.017,-0.006,0.993,0.0,-0.04,0.01,0.42,-0.99,6.23,1100,1100,1500,1500,0.05,0,3,1,1
282,181913711,1009,14,2033,-34,-13,-9,0,0.0068359375,0.99267578125,-0.0166015625,-0.39634146341463417,-0.27439024390243905,0.0,0.017,-0.006,0.993,0.0,-0.03,0.0,0.42,-0.99,6.23,1100,1100,1500,1500,0.05,0,3,1,1
283,181914719,1008,12,2034,-35,-11,-10,0,0.005859375,0.9931640625,-0.01708984375,-0.3353658536585366,-0.30487804878048785,0.0,0.017,-0.006,0.993,-0.01,-0.03,-0.01,0.42,-0.99,6.23,1100,1100,1500,1500,0.05,0,3,1,1
284,181915728,1009,11,2035,-36,-11,-10,-1,0.00537109375,0.99365234375,-0.017578125,-0.3353658536585366,-0.30487804878048785,-0.030487804878048783,0.017,-0.006,0.993,0.0,-0.04,-0.02,0.42,-0.99,6.23,1100,1100,1500,1500,0.06,0,3,1,1
285,181916736,1008,12,2035,-39,-12,-11,-1,0.005859375,0.99365234375,-0.01904296875,-0.3658536585365854,-0.3353658536585366,-0.030487804878048783,0.017,-0.006,0.993,0.0,-0.04,-0.03,0.42,-0.99,6.23,1100,1100,1500,1500,0.07,0,3,1,1
286,181917744,1008,12,2034,-40,-12,-11,0,0.005859375,0.9931640625,-0.01953125,-0.3658536585365854,-0.3353658536585366,0.0,0.017,-0.006,0.993,0.0,-0.03,-0.05,0.42,-0.99,6.23,1100,1100,1500,1500,0.08,0,3,1,1
287,181918753,1009,13,2033,-37,-12,-10,0,0.00634765625,0.99267578125,-0.01806640625,-0.3658536585365854,-0.30487804878048785,0.0,0.017,-0.006,0.993,-0.01,-0.03,-0.04,0.42,-0.99,6.23,1100,1100,1500,1500,0.08,0,3,1,1
288,181919761,1008,13,2033,-34,-12,-10,0,0.00634765625,0.99267578125,-0.0166015625,-0.3658536585365854,-0.30487804878048785,0.0,0.017,-0.006,0.993,-0.01,-0.03,-0.04,0.42,-0.99,6.23,1100,1100,1500,1500,0.07,0,3,1,1
289,181920769,1008,12,2034,-32,-12,-10,0,0.005859375,0.9931640625,-0.015625,-0.3658536585365854,-0.30487804878048785,0.0,0.017,-0.006,0.993,-0.01,-0.03,-0.04,0.42,-0.99,6.23,1100,1100,1500,1500,0.07,0,3,1,1
290,181921778,1009,12,2035,-31,-11,-10,0,0.005859375,0.99365234375,-0.01513671875,-0.3353658536585366,-0.30487804878048785,0.0,0.016,-0.006,0.993,-0.01,-0.04,-0.04,0.42,-0.99,6.23,1100,1100,1500,1500,0.07,0,3,1,1
291,181922786,1008,13,2036,-32,-13,-10,0,0.00634765625,0.994140625,-0.015625,-0.39634146341463417,-0.30487804878048785,0.0,0.016,-0.006,0.993,-0.01,-0.02,-0.04,0.42,-0.99,6.23,1100,1100,1500,1500,0.07,0,3,1,1
292,181923794,1008,14,2035,-33,-15,-10,1,0.0068359375,0.99365234375,-0.01611328125,-0.4573170731707317,-0.30487804878048785,0.030487804878048783,0.016,-0.006,0.993,-0.03,0.0,-0.04,0.42,-0.99,6.23,1100,1100,1500,1500,0.07,0,3,1,1
293,181924803,1009,13,2034,-35,-15,-10,2,0.00634765625,0.9931640625,-0.01708984375,-0.4573170731707317,-0.30487804878048785,0.06097560975609757,0.016,-0.006,0.993,-0.04,0.02,-0.04,0.42,-0.99,6.23,1100,1100,1500,1500,0.07,0,3,1,1
294,181925811,1008,13,2034,-35,-14,-9,2,0.00634765625,0.9931640625,-0.01708984375,-0.426829268292683,-0.27439024390243905,0.06097560975609757,0.016,-0.006,0.993,-0.05,0.02,-0.03,0.42,-0.99,6.23,1100,1100,1500,1500,0.07,0,3,1,1
295,181926820,1009,13,2035,-35,-13,-8,1,0.00634765625,0.99365234375,-0.01708984375,-0.39634146341463417,-0.24390243902439027,0.030487804878048783,0.016,-0.006,0.993,-0.05,0.01,-0.01,0.42,-0.99,6.23,1100,1100,1500,1500,0.06,0,3,1,1
296,181927828,1008,12,2035,-33,-12,-7,0,0.005859375,0.99365234375,-0.01611328125,-0.3658536585365854,-0.2134146341463415,0.0,0.016,-0.006,0.993,-0.04,0.0,0.0,0.42,-0.99,6.23,1100,1100,1500,1500,0.07,0,3,1,1
297,181928836,1008,12,2035,-31,-11,-7,0,0.005859375,0.99365234375,-0.01513671875,-0.3353658536585366,-0.2134146341463415,0.0,0.016,-0.006,0.993,-0.03,-0.01,0.01,0.42,-0.99,6.23,1100,1100,1500,1500,0.08,0,3,1,1
298,181929845,1009,12,2036,-30,-11,-8,-1,0.005859375,0.994140625,-0.0146484375,-0.3353658536585366,-0.24390243902439027,-0.030487804878048783,0.016,-0.006,0.993,-0.02,-0.03,0.01,0.42,-0.99,6.23,1100,1100,1500,1500,0.09,0,3,1,1
299,181930853,1008,12,2036,-32,-13,-8,-1,0.005859375,0.994140625,-0.015625,-0.39634146341463417,-0.24390243902439027,-0.030487804878048783,0.016,-0.006,0.993,-0.01,-0.02,0.01,0.42,-0.99,6.23,1100,1100,1500,1500,0.1,0,3,1,1
300,181931861,1008,12,2035,-34,-14,-8,0,0.005859375,0.99365234375,-0.0166015625,-0.426829268292683,-0.24390243902439027,0.0,0.016,-0.006,0.993,-0.01,0.0,0.01,0.42,-0.99,6.23,1100,1100,1500,1500,0.09,0,3,1,1
301,181932870,1009,13,2035,-34,-14,-7,1,0.00634765625,0.99365234375,-0.0166015625,-0.426829268292683,-0.2134146341463415,0.030487804878048783,0.016,-0.006,0.993,-0.02,0.0,0.02,0.42,-0.99,6.23,1100,1100,1500,1500,0.09,0,3,1,1
302,181933878,1008,14,2037,-34,-12,-7,1,0.0068359375,0.99462890625,-0.0166015625,-0.3658536585365854,-0.2134146341463415,0.030487804878048783,0.016,-0.006,0.993,-0.03,0.0,0.03,0.42,-0.99,6.23,1100,1100,1500,1500,0.08,0,3,1,1
303,181934886,1008,13,2037,-33,-11,-8,0,0.00634765625,0.99462890625,-0.01611328125,-0.3353658536585366,-0.24390243902439027,0.0,0.016,-0.006,0.993,-0.03,-0.02,0.02,0.42,-0.99,6.23,1100,1100,1500,1500,0.08,0,3,1,1
304,181935895,1009,13,2036,-34,-11,-10,0,0.00634765625,0.994140625,-0.0166015625,-0.3353658536585366,-0.30487804878048785,0.0,0.016,-0.006,0.993,-0.02,-0.03,0.0,0.42,-0.99,6.23,1100,1100,1500,1500,0.08,0,3,1,1
305,181936903,1008,13,2034,-35,-12,-10,0,0.00634765625,0.9931640625,-0.01708984375,-0.3658536585365854,-0.30487804878048785,0.0,0.016,-0.006,0.993,-0.02,-0.03,-0.01,0.42,-0.99,6.23,1100,1100,1500,1500,0.08,0,3,1,1
306,181937912,1009,13,2032,-36,-13,-10,1,0.00634765625,0.9921875,-0.017578125,-0.39634146341463417,-0.30487804878048785,0.030487804878048783,0.016,-0.006,0.993,-0.03,-0.02,-0.02,0.42,-0.99,6.23,1100,1100,1500,1500,0.07,0,3,1,1
307,181938920,1008,13,2032,-36,-13,-9,1,0.00634765625,0.9921875,-0.017578125,-0.39634146341463417,-0.27439024390243905,0.030487804878048783,0.016,-0.006,0.993,-0.03,-0.01,-0.02,0.42,-0.99,6.23,1100,1100,1500,1500,0.07,0,3,1,1
308,181939928,1008,14,2033,-35,-13,-9,0,0.0068359375,0.99267578125,-0.01708984375,-0.39634146341463417,-0.27439024390243905,0.0,0.016,-0.006,0.993,-0.03,0.0,-0.01,0.42,-0.99,6.23,1100,1100,1500,1500,0.06,0,3,1,1
309,181940937,1009,15,2034,-34,-12,-8,0,0.00732421875,0.9931640625,-0.0166015625,-0.3658536585365854,-0.24390243902439027,0.0,0.016,-0.006,0.993,-0.02,-0.01,0.0,0.42,-0.99,6.23,1100,1100,1500,1500,0.05,0,3,1,1
310,181941945,1008,14,2035,-36,-11,-8,0,0.0068359375,0.99365234375,-0.017578125,-0.3353658536585366,-0.24390243902439027,0.0,0.016,-0.006,0.993,-0.02,-0.02,0.0,0.42,-0.99,6.23,1100,1100,1500,1500,0.05,0,3,1,1
311,181942953,1008,12,2035,-37,-11,-9,0,0.005859375,0.99365234375,-0.01806640625,-0.3353658536585366,-0.27439024390243905,0.0,0.017,-0.006,0.993,-0.02,-0.03,0.0,0.42,-0.99,6.23,1100,1100,1500,1500,0.05,0,3,1,1
312,181943962,1009,13,2035,-36,-13,-9,0,0.00634765625,0.99365234375,-0.017578125,-0.39634146341463417,-0.27439024390243905,0.0,0.017,-0.006,0.993,-0.02,-0.02,0.0,0.42,-0.99,6.23,1100,1100,1500,1500,0.05,0,3,1,1
313,181944970,1008,14,2035,-36,-14,-9,0,0.0068359375,0.99365234375,-0.017578125,-0.426829268292683,-0.27439024390243905,0.0,0.017,-0.006,0.993,-0.02,0.0,0.0,0.42,-0.99,6.23,1100,1100,1500,1500,0.05,0,3,1,1
314,181945979,1009,14,2034,-36,-14,-9,1,0.0068359375,0.9931640625,-0.017578125,-0.426829268292683,-0.27439024390243905,0.030487804878048783,0.017,-0.006,0.993,-0.03,0.0,-0.01,0.42,-0.99,6.23,1100,1100,1500,1500,0.05,0,3,1,1
315,181946987,1008,14,2033,-36,-12,-9,1,0.0068359375,0.99267578125,-0.017578125,-0.3658536585365854,-0.27439024390243905,0.030487804878048783,0.017,-0.006,0.993,-0.03,0.0,-0.01,0.42,-0.99,6.23,1100,1100,1500,1500,0.04,0,3,1,1
316,181947995,1008,14,2033,-36,-12,-9,0,0.0068359375,0.99267578125,-0.017578125,-0.3658536585365854,-0.27439024390243905,0.0,0.017,-0.006,0.993,-0.03,-0.01,-0.01,0.42,-0.99,6.23,1100,1100,1500,1500,0.04,0,3,1,1
317,181949001,1006,14,2034,-35,-13,-9,0,0.0068359375,0.9931640625,-0.01708984375,-0.39634146341463417,-0.27439024390243905,0.0,0.017,-0.006,0.993,-0.02,0.0,-0.01,0.42,-0.99,6.23,1100,1100,1500,1500,0.04,0,3,1,1
318,181950009,1008,12,2035,-33,-14,-8,0,0.005859375,0.99365234375,-0.01611328125,-0.426829268292683,-0.24390243902439027,0.0,0.017,-0.006,0.993,-0.02,0.0,0.0,0.42,-0.99,6.23,1100,1100,1500,1500,0.05,0,3,1,1
319,181951018,1009,10,2035,-32,-14,-7,-1,0.0048828125,0.99365234375,-0.015625,-0.426829268292683,-0.2134146341463415,-0.030487804878048783,0.016,-0.006,0.993,-0.01,0.01,0.01,0.42,-0.99,6.23,1100,1100,1500,1500,0.06,0,3,1,1
320,181952026,1008,10,2034,-33,-13,-6,0,0.0048828125,0.9931640625,-0.01611328125,-0.39634146341463417,-0.1829268292682927,0.0,0.016,-0.006,0.993,-0.01,0.01,0.03,0.42,-0.99,6.23,1100,1100,1500,1500,0.08,0,3,1,1
321,181953034,1008,10,2034,-35,-12,-7,1,0.0048828125,0.9931640625,-0.01708984375,-0.3658536585365854,-0.2134146341463415,0.030487804878048783,0.016,-0.005,0.993,-0.02,0.0,0.03,0.42,-0.99,6.23,1100,1100,1500,1500,0.09,0,3,1,1
322,181954043,1009,11,2035,-34,-11,-7,1,0.00537109375,0.99365234375,-0.0166015625,-0.3353658536585366,-0.2134146341463415,0.030487804878048783,0.016,-0.005,0.993,-0.03,-0.02,0.04,0.42,-0.99,6.23,1100,1100,1500,1500,0.09,0,3,1,1
323,181955051,1008,12,2037,-32,-11,-7,2,0.005859375,0.99462890625,-0.015625,-0.3353658536585366,-0.2134146341463415,0.06097560975609757,0.016,-0.005,0.993,-0.05,-0.03,0.04,0.42,-0.99,6.23,1100,1100,1500,1500,0.1,0,3,1,1
324,181956060,1009,13,2037,-31,-12,-9,2,0.00634765625,0.99462890625,-0.01513671875,-0.3658536585365854,-0.27439024390243905,0.06097560975609757,0.016,-0.005,0.993,-0.06,-0.03,0.02,0.42,-0.99,6.23,1100,1100,1500,1500,0.1,0,3,1,1
325,181957068,1008,13,2036,-32,-12,-10,2,0.00634765625,0.994140625,-0.015625,-0.3658536585365854,-0.30487804878048785,0.06097560975609757,0.016,-0.005,0.993,-0.06,-0.03,0.0,0.42,-0.99,6.23,1100,1100,1500,1500,0.1,0,3,1,1
326,181958076,1008,13,2036,-34,-12,-9,0,0.00634765625,0.994140625,-0.0166015625,-0.3658536585365854,-0.27439024390243905,0.0,0.016,-0.006,0.993,-0.05,-0.03,0.0,0.42,-0.99,6.23,1100,1100,1500,1500,0.09,0,3,1,1
327,181959085,1009,11,2037,-32,-13,-8,-1,0.00537109375,0.99462890625,-0.015625,-0.39634146341463417,-0.24390243902439027,-0.030487804878048783,0.016,-0.005,0.993,-0.03,-0.01,0.0,0.42,-0.99,6.23,1100,1100,1500,1500,0.1,0,3,1,1
328,181960093,1008,11,2035,-32,-14,-9,-1,0.00537109375,0.99365234375,-0.015625,-0.426829268292683,-0.27439024390243905,-0.030487804878048783,0.016,-0.005,0.993,-0.01,0.0,0.0,0.42,-0.99,6.23,1100,1100,1500,1500,0.11,0,3,1,1
329,181961101,1008,11,2034,-33,-15,-9,0,0.00537109375,0.9931640625,-0.01611328125,-0.4573170731707317,-0.27439024390243905,0.0,0.016,-0.005,0.993,-0.01,0.01,0.0,0.42,-0.99,6.23,1100,1100,1500,1500,0.11,0,3,1,1
330,181962110,1009,12,2034,-34,-14,-9,1,0.005859375,0.9931640625,-0.0166015625,-0.426829268292683,-0.27439024390243905,0.030487804878048783,0.016,-0.005,0.993,-0.02,0.02,0.0,0.42,-0.99,6.23,1100,1100,1500,1500,0.11,0,3,1,1
331,181963118,1008,13,2036,-33,-11,-9,1,0.00634765625,0.994140625,-0.01611328125,-0.3353658536585366,-0.27439024390243905,0.030487804878048783,0.016,-0.005,0.993,-0.03,0.0,-0.01,0.42,-0.99,6.23,1100,1100,1500,1500,0.1,0,3,1,1
332,181964126,1008,12,2036,-33,-10,-9,-1,0.005859375,0.994140625,-0.01611328125,-0.30487804878048785,-0.27439024390243905,-0.030487804878048783,0.016,-0.005,0.993,-0.02,-0.03,-0.01,0.42,-0.99,6.23,1100,1100,1500,1500,0.1,0,3,1,1
333,181965135,1009,11,2034,-32,-11,-10,-2,0.00537109375,0.9931640625,-0.015625,-0.3353658536585366,-0.30487804878048785,-0.06097560975609757,0.016,-0.005,0.993,0.0,-0.04,-0.02,0.42,-0.99,6.23,1100,1100,1500,1500,0.11,0,3,1,1
334,181966143,1008,11,2033,-33,-13,-10,0,0.00537109375,0.99267578125,-0.01611328125,-0.39634146341463417,-0.30487804878048785,0.0,0.016,-0.005,0.993,0.0,-0.02,-0.02,0.42,-0.99,6.23,1100,1100,1500,1500,0.11,0,3,1,1
335,181967152,1009,11,2032,-33,-13,-10,1,0.00537109375,0.9921875,-0.01611328125,-0.39634146341463417,-0.30487804878048785,0.030487804878048783,0.016,-0.005,0.993,-0.02,-0.01,-0.03,0.42,-0.99,6.23,1100,1100,1500,1500,0.12,0,3,1,1
336,181968160,1008,11,2033,-34,-12,-9,1,0.00537109375,0.99267578125,-0.0166015625,-0.3658536585365854,-0.27439024390243905,0.030487804878048783,0.016,-0.005,0.993,-0.03,-0.02,-0.02,0.42,-0.99,6.23,1100,1100,1500,1500,0.11,0,3,1,1
337,181969168,1008,12,2034,-37,-12,-9,2,0.005859375,0.9931640625,-0.01806640625,-0.3658536585365854,-0.27439024390243905,0.06097560975609757,0.016,-0.005,0.993,-0.04,-0.02,-0.02,0.42,-0.99,6.23,1100,1100,1500,1500,0.11,0,3,1,1
338,181970177,1009,14,2034,-38,-12,-9,1,0.0068359375,0.9931640625,-0.0185546875,-0.3658536585365854,-0.27439024390243905,0.030487804878048783,0.016,-0.005,0.993,-0.04,-0.02,-0.02,0.42,-0.99,6.23,1100,1100,1500,1500,0.09,0,3,1,1
339,181971185,1008,14,2033,-36,-13,-9,-1,0.0068359375,0.99267578125,-0.017578125,-0.39634146341463417,-0.27439024390243905,-0.030487804878048783,0.016,-0.006,0.993,-0.02,-0.01,-0.01,0.42,-0.99,6.23,1100,1100,1500,1500,0.08,0,3,1,1
340,181972193,1008,14,2034,-35,-14,-10,-1,0.0068359375,0.9931640625,-0.01708984375,-0.426829268292683,-0.30487804878048785,-0.030487804878048783,0.016,-0.006,0.993,-0.01,0.0,-0.02,0.42,-0.99,6.23,1100,1100,1500,1500,0.07,0,3,1,1
341,181973202,1009,15,2036,-36,-15,-9,-1,0.00732421875,0.994140625,-0.017578125,-0.4573170731707317,-0.27439024390243905,-0.030487804878048783,0.017,-0.006,0.993,0.0,0.02,-0.02,0.42,-0.99,6.23,1100,1100,1500,1500,0.06,0,3,1,1
342,181974210,1008,16,2036,-36,-15,-8,-1,0.0078125,0.994140625,-0.017578125,-0.4573170731707317,-0.24390243902439027,-0.030487804878048783,0.017,-0.006,0.993,0.0,0.03,0.0,0.42,-0.99,6.23,1100,1100,1500,1500,0.05,0,3,1,1
343,181975218,1008,14,2034,-36,-15,-8,0,0.0068359375,0.9931640625,-0.017578125,-0.4573170731707317,-0.24390243902439027,0.0,0.017,-0.006,0.993,0.0,0.04,0.0,0.42,-0.99,6.23,1100,1100,1500,1500,0.04,0,3,1,1
344,181976227,1009,12,2032,-35,-14,-8,1,0.005859375,0.9921875,-0.01708984375,-0.426829268292683,-0.24390243902439027,0.030487804878048783,0.017,-0.006,0.993,-0.02,0.04,0.0,0.42,-0.99,6.23,1100,1100,1500,1500,0.05,0,3,1,1
345,181977235,1008,12,2031,-35,-12,-8,1,0.005859375,0.99169921875,-0.01708984375,-0.3658536585365854,-0.24390243902439027,0.030487804878048783,0.017,-0.006,0.992,-0.03,0.01,0.0,0.42,-0.99,6.23,1100,1100,1500,1500,0.06,0,3,1,1
346,181978244,1009,12,2033,-37,-12,-9,0,0.005859375,0.99267578125,-0.01806640625,-0.3658536585365854,-0.27439024390243905,0.0,0.017,-0.006,0.992,-0.02,0.0,0.0,0.42,-0.99,6.23,1100,1100,1500,1500,0.06,0,3,1,1
347,181979252,1008,11,2034,-39,-13,-8,1,0.00537109375,0.9931640625,-0.01904296875,-0.39634146341463417,-0.24390243902439027,0.030487804878048783,0.017,-0.006,0.992,-0.03,0.0,0.0,0.42,-0.99,6.23,1100,1100,1500,1500,0.07,0,3,1,1
348,181980260,1008,12,2033,-39,-14,-8,1,0.005859375,0.99267578125,-0.01904296875,-0.426829268292683,-0.24390243902439027,0.030487804878048783,0.017,-0.006,0.992,-0.04,0.01,0.0,0.42,-0.99,6.23,1100,1100,1500,1500,0.08,0,3,1,1
349,181981269,1009,13,2033,-38,-14,-9,1,0.00634765625,0.99267578125,-0.0185546875,-0.426829268292683,-0.27439024390243905,0.030487804878048783,0.017,-0.006,0.992,-0.04,0.01,0.0,0.42,-0.99,6.23,1100,1100,1500,1500,0.08,0,3,1,1
350,181982277,1008,14,2033,-38,-15,-10,1,0.0068359375,0.99267578125,-0.0185546875,-0.4573170731707317,-0.30487804878048785,0.030487804878048783,0.018,-0.006,0.992,-0.04,0.03,-0.01,0.42,-0.99,6.23,1100,1100,1500,1500,0.08,0,3,1,1
351,181983285,1008,14,2035,-36,-15,-9,0,0.0068359375,0.99365234375,-0.017578125,-0.4573170731707317,-0.27439024390243905,0.0,0.017,-0.006,0.992,-0.03,0.04,-0.01,0.42,-0.99,6.23,1100,1100,1500,1500,0.07,0,3,1,1
352,181984294,1009,13,2036,-35,-15,-8,0,0.00634765625,0.994140625,-0.01708984375,-0.4573170731707317,-0.24390243902439027,0.0,0.017,-0.006,0.993,-0.03,0.04,0.0,0.42,-0.99,6.23,1100,1100,1500,1500,0.07,0,3,1,1
353,181985302,1008,14,2038,-36,-15,-8,-1,0.0068359375,0.9951171875,-0.017578125,-0.4573170731707317,-0.24390243902439027,-0.030487804878048783,0.017,-0.006,0.993,-0.01,0.05,0.0,0.42,-0.99,6.23,1100,1100,1500,1500,0.06,0,3,1,1
354,181986310,1008,14,2037,-38,-15,-8,0,0.0068359375,0.99462890625,-0.0185546875,-0.4573170731707317,-0.24390243902439027,0.0,0.017,-0.006,0.993,-0.01,0.05,0.0,0.42,-0.99,6.23,1100,1100,1500,1500,0.06,0,3,1,1
355,181987318,1008,15,2036,-39,-15,-8,1,0.00732421875,0.994140625,-0.01904296875,-0.4573170731707317,-0.24390243902439027,0.030487804878048783,0.018,-0.006,0.993,-0.03,0.05,0.01,0.42,-0.99,6.23,1100,1100,1500,1500,0.07,0,3,1,1
356,181988327,1009,14,2036,-38,-15,-8,1,0.0068359375,0.994140625,-0.0185546875,-0.4573170731707317,-0.24390243902439027,0.030487804878048783,0.018,-0.006,0.993,-0.03,0.06,0.01,0.42,-0.99,6.23,1100,1100,1500,1500,0.07,0,3,1,1
357,181989335,1008,13,2035,-35,-15,-9,1,0.00634765625,0.99365234375,-0.01708984375,-0.4573170731707317,-0.27439024390243905,0.030487804878048783,0.017,-0.006,0.993,-0.04,0.06,0.0,0.42,-0.99,6.23,1100,1100,1500,1500,0.06,0,3,1,1
358,181990344,1009,14,2034,-34,-14,-9,1,0.0068359375,0.9931640625,-0.0166015625,-0.426829268292683,-0.27439024390243905,0.030487804878048783,0.017,-0.006,0.993,-0.04,0.05,0.0,0.42,-0.99,6.23,1100,1100,1500,1500,0.05,0,3,1,1
359,181991352,1008,15,2033,-36,-14,-9,1,0.00732421875,0.99267578125,-0.017578125,-0.426829268292683,-0.27439024390243905,0.030487804878048783,0.017,-0.006,0.993,-0.04,0.04,0.0,0.42,-0.99,6.23,1100,1100,1500,1500,0.05,0,3,1,1
360,181992360,1008,15,2034,-36,-14,-8,1,0.00732421875,0.9931640625,-0.017578125,-0.426829268292683,-0.24390243902439027,0.030487804878048783,0.017,-0.006,0.993,-0.04,0.04,0.0,0.42,-0.99,6.23,1100,1100,1500,1500,0.04,0,3,1,1
361,181993369,1009,13,2034,-34,-13,-8,0,0.00634765625,0.9931640625,-0.0166015625,-0.39634146341463417,-0.24390243902439027,0.0,0.017,-0.006,0.993,-0.03,0.02,0.0,0.42,-0.99,6.23,1100,1100,1500,1500,0.04,0,3,1,1
362,181994377,1008,11,2033,-34,-12,-9,1,0.00537109375,0.99267578125,-0.0166015625,-0.3658536585365854,-0.27439024390243905,0.030487804878048783,0.017,-0.006,0.993,-0.04,0.0,0.0,0.42,-0.99,6.23,1100,1100,1500,1500,0.05,0,3,1,1
363,181995385,1008,12,2033,-35,-12,-9,0,0.005859375,0.99267578125,-0.01708984375,-0.3658536585365854,-0.27439024390243905,0.0,0.017,-0.006,0.993,-0.03,0.0,0.0,0.42,-0.99,6.23,1100,1100,1500,1500,0.05,0,3,1,1
364,181996394,1009,13,2035,-37,-13,-8,0,0.00634765625,0.99365234375,-0.01806640625,-0.39634146341463417,-0.24390243902439027,0.0,0.017,-0.006,0.993,-0.03,0.0,0.0,0.42,-0.99,6.23,1100,1100,1500,1500,0.06,0,3,1,1
365,181997402,1008,13,2035,-38,-13,-8,-1,0.00634765625,0.99365234375,-0.0185546875,-0.39634146341463417,-0.24390243902439027,-0.030487804878048783,0.017,-0.006,0.993,-0.01,0.0,0.0,0.42,-0.99,6.23,1100,1100,1500,1500,0.06,0,3,1,1
366,181998411,1009,11,2035,-38,-12,-9,0,0.00537109375,0.99365234375,-0.0185546875,-0.3658536585365854,-0.27439024390243905,0.0,0.017,-0.006,0.993,-0.01,-0.01,0.0,0.42,-0.99,6.23,1100,1100,1500,1500,0.07,0,3,1,1
367,181999419,1008,10,2034,-37,-11,-9,1,0.0048828125,0.9931640625,-0.01806640625,-0.3353658536585366,-0.27439024390243905,0.030487804878048783,0.017,-0.006,0.993,-0.02,-0.02,0.0,0.42,-0.99,6.23,1100,1100,1500,1500,0.08,0,3,1,1
368,182000427,1008,10,2033,-38,-12,-9,1,0.0048828125,0.99267578125,-0.0185546875,-0.3658536585365854,-0.27439024390243905,0.030487804878048783,0.017,-0.005,0.993,-0.03,-0.02,0.0,0.42,-0.99,6.23,1100,1100,1500,1500,0.1,0,3,1,1
369,182001436,1009,10,2033,-40,-14,-10,0,0.0048828125,0.99267578125,-0.01953125,-0.426829268292683,-0.30487804878048785,0.0,0.018,-0.005,0.993,-0.03,0.0,-0.02,0.42,-0.99,6.23,1100,1100,1500,1500,0.11,0,3,1,1
370,182002444,1008,10,2034,-39,-15,-10,0,0.0048828125,0.9931640625,-0.01904296875,-0.4573170731707317,-0.30487804878048785,0.0,0.018,-0.005,0.993,-0.02,0.01,-0.02,0.42,-0.99,6.23,1100,1100,1500,1500,0.12,0,3,1,1
371,182003452,1008,10,2035,-38,-14,-9,0,0.0048828125,0.99365234375,-0.0185546875,-0.426829268292683,-0.27439024390243905,0.0,0.018,-0.005,0.993,-0.02,0.02,-0.02,0.42,-0.99,6.23,1100,1100,1500,1500,0.13,0,3,1,1
372,182004461,1009,9,2036,-39,-14,-10,1,0.00439453125,0.994140625,-0.01904296875,-0.426829268292683,-0.30487804878048785,0.030487804878048783,0.018,-0.005,0.993,-0.03,0.02,-0.03,0.42,-0.99,6.23,1100,1100,1500,1500,0.14,0,3,1,1
373,182005469,1008,10,2036,-39,-15,-11,1,0.0048828125,0.994140625,-0.01904296875,-0.4573170731707317,-0.3353658536585366,0.030487804878048783,0.018,-0.005,0.993,-0.04,0.03,-0.04,0.42,-0.99,6.23,1100,1100,1500,1500,0.15,0,3,1,1
374,182006486,1017,13,2035,-39,-14,-10,0,0.00634765625,0.99365234375,-0.01904296875,-0.426829268292683,-0.30487804878048785,0.0,0.018,-0.005,0.993,-0.03,0.03,-0.04,0.42,-0.99,6.23,1100,1100,1500,1500,0.14,0,3,1,1
375,182007486,1000,13,2035,-37,-12,-8,1,0.00634765625,0.99365234375,-0.01806640625,-0.3658536585365854,-0.24390243902439027,0.030487804878048783,0.018,-0.005,0.993,-0.03,0.01,-0.02,0.42,-0.99,6.23,1100,1100,1500,1500,0.13,0,3,1,1
376,182008494,1008,13,2036,-36,-11,-6,2,0.00634765625,0.994140625,-0.017578125,-0.3353658536585366,-0.1829268292682927,0.06097560975609757,0.018,-0.005,0.993,-0.05,-0.01,0.0,0.42,-0.99,6.23,1100,1100,1500,1500,0.12,0,3,1,1
377,182009503,1009,15,2036,-35,-11,-7,2,0.00732421875,0.994140625,-0.01708984375,-0.3353658536585366,-0.2134146341463415,0.06097560975609757,0.018,-0.005,0.993,-0.06,-0.02,0.02,0.42,-0.99,6.23,1100,1100,1500,1500,0.1,0,3,1,1
378,182010511,1008,17,2035,-35,-11,-9,1,0.00830078125,0.99365234375,-0.01708984375,-0.3353658536585366,-0.27439024390243905,0.030487804878048783,0.018,-0.006,0.993,-0.05,-0.03,0.01,0.42,-0.99,6.23,1100,1100,1500,1500,0.08,0,3,1,1
379,182011519,1008,17,2036,-35,-11,-10,0,0.00830078125,0.994140625,-0.01708984375,-0.3353658536585366,-0.30487804878048785,0.0,0.017,-0.006,0.993,-0.04,-0.04,0.0,0.42,-0.99,6.23,1100,1100,1500,1500,0.06,0,3,1,1
380,182012528,1009,16,2036,-36,-12,-10,0,0.0078125,0.994140625,-0.017578125,-0.3658536585365854,-0.30487804878048785,0.0,0.017,-0.006,0.993,-0.03,-0.03,-0.02,0.42,-0.99,6.23,1100,1100,1500,1500,0.05,0,3,1,1
381,182013536,1008,17,2036,-37,-13,-9,-1,0.00830078125,0.994140625,-0.01806640625,-0.39634146341463417,-0.27439024390243905,-0.030487804878048783,0.017,-0.007,0.993,-0.02,-0.02,-0.01,0.42,-0.99,6.23,1100,1100,1500,1500,0.04,0,3,1,1
382,182014544,1008,16,2036,-37,-15,-9,-1,0.0078125,0.994140625,-0.01806640625,-0.4573170731707317,-0.27439024390243905,-0.030487804878048783,0.017,-0.007,0.993,-0.01,0.0,-0.01,0.42,-0.99,6.23,1100,1100,1500,1500,0.04,0,3,1,1
383,182015553,1009,14,2036,-38,-16,-9,-1,0.0068359375,0.994140625,-0.0185546875,-0.48780487804878053,-0.27439024390243905,-0.030487804878048783,0.017,-0.007,0.993,0.0,0.03,-0.01,0.42,-0.99,6.23,1100,1100,1500,1500,0.05,0,3,1,1
384,182016561,1008,13,2035,-37,-16,-9,0,0.00634765625,0.99365234375,-0.01806640625,-0.48780487804878053,-0.27439024390243905,0.0,0.018,-0.006,0.993,-0.01,0.05,-0.01,0.42,-0.99,6.23,1100,1100,1500,1500,0.05,0,3,1,1
385,182017569,1008,14,2033,-36,-14,-8,0,0.0068359375,0.99267578125,-0.017578125,-0.426829268292683,-0.24390243902439027,0.0,0.017,-0.006,0.993,-0.01,0.04,0.0,0.42,-0.99,6.23,1100,1100,1500,1500,0.05,0,3,1,1
386,182018578,1009,13,2032,-35,-12,-8,0,0.00634765625,0.9921875,-0.01708984375,-0.3658536585365854,-0.24390243902439027,0.0,0.017,-0.006,0.993,-0.01,0.02,0.0,0.42,-0.99,6.23,1100,1100,1500,1500,0.04,0,3,1,1
387,182019586,1008,12,2031,-34,-11,-8,1,0.005859375,0.99169921875,-0.0166015625,-0.3353658536585366,-0.24390243902439027,0.030487804878048783,0.017,-0.006,0.993,-0.02,0.0,0.0,0.42,-0.99,6.23,1100,1100,1500,1500,0.04,0,3,1,1
388,182020595,1009,11,2032,-34,-12,-9,0,0.00537109375,0.9921875,-0.0166015625,-0.3658536585365854,-0.27439024390243905,0.0,0.017,-0.006,0.993,-0.02,-0.01,0.0,0.42,-0.99,6.23,1100,1100,1500,1500,0.05,0,3,1,1
389,182021603,1008,11,2033,-35,-13,-9,0,0.00537109375,0.99267578125,-0.01708984375,-0.39634146341463417,-0.27439024390243905,0.0,0.017,-0.006,0.992,-0.02,0.0,0.0,0.42,-0.99,6.23,1100,1100,1500,1500,0.06,0,3,1,1
390,182022611,1008,13,2034,-36,-12,-9,1,0.00634765625,0.9931640625,-0.017578125,-0.3658536585365854,-0.27439024390243905,0.030487804878048783,0.017,-0.006,0.993,-0.03,-0.01,0.0,0.42,-0.99,6.23,1100,1100,1500,1500,0.06,0,3,1,1
391,182023620,1009,14,2035,-38,-12,-9,2,0.0068359375,0.99365234375,-0.0185546875,-0.3658536585365854,-0.27439024390243905,0.06097560975609757,0.017,-0.006,0.993,-0.04,-0.01,0.0,0.42,-0.99,6.23,1100,1100,1500,1500,0.06,0,3,1,1
392,182024628,1008,14,2035,-37,-13,-9,2,0.0068359375,0.99365234375,-0.01806640625,-0.39634146341463417,-0.27439024390243905,0.06097560975609757,0.017,-0.006,0.993,-0.06,-0.01,-0.01,0.42,-0.99,6.23,1100,1100,1500,1500,0.06,0,3,1,1
393,182025636,1008,14,2035,-37,-11,-8,0,0.0068359375,0.99365234375,-0.01806640625,-0.3353658536585366,-0.24390243902439027,0.0,0.017,-0.006,0.993,-0.04,-0.02,0.0,0.42,-0.99,6.23,1100,1100,1500,1500,0.06,0,3,1,1
394,182026645,1009,14,2034,-37,-11,-8,0,0.0068359375,0.9931640625,-0.01806640625,-0.3353658536585366,-0.24390243902439027,0.0,0.017,-0.006,0.993,-0.03,-0.03,0.0,0.42,-0.99,6.23,1100,1100,1500,1500,0.06,0,3,1,1
395,182027653,1008,14,2035,-36,-13,-9,0,0.0068359375,0.99365234375,-0.017578125,-0.39634146341463417,-0.27439024390243905,0.0,0.017,-0.006,0.993,-0.03,-0.02,0.0,0.42,-0.99,6.23,1100,1100,1500,1500,0.05,0,3,1,1
396,182028661,1008,14,2037,-35,-14,-8,0,0.0068359375,0.99462890625,-0.01708984375,-0.426829268292683,-0.24390243902439027,0.0,0.017,-0.006,0.993,-0.02,0.0,0.0,0.42,-0.99,6.23,1100,1100,1500,1500,0.05,0,3,1,1
397,182029670,1009,15,2037,-34,-14,-8,-1,0.00732421875,0.99462890625,-0.0166015625,-0.426829268292683,-0.24390243902439027,-0.030487804878048783,0.017,-0.006,0.993,-0.01,0.0,0.0,0.42,-0.99,6.23,1100,1100,1500,1500,0.04,0,3,1,1
398,182030678,1008,15,2036,-34,-13,-9,-1,0.00732421875,0.994140625,-0.0166015625,-0.39634146341463417,-0.27439024390243905,-0.030487804878048783,0.017,-0.006,0.993,0.0,0.0,0.0,0.42,-0.99,6.23,1100,1100,1500,1500,0.03,0,3,1,1
399,182031687,1009,13,2036,-35,-13,-9,0,0.00634765625,0.994140625,-0.01708984375,-0.39634146341463417,-0.27439024390243905,0.0,0.017,-0.006,0.993,-0.01,0.0,0.0,0.42,-0.99,6.23,1100,1100,1500,1500,0.03,0,3,1,1
400,182032695,1008,11,2035,-35,-14,-9,1,0.00537109375,0.99365234375,-0.01708984375,-0.426829268292683,-0.27439024390243905,0.030487804878048783,0.017,-0.006,0.993,-0.02,0.01,0.0,0.42,-0.99,6.23,1100,1100,1500,1500,0.05,0,3,1,1
401,182033703,1008,11,2033,-35,-12,-9,1,0.00537109375,0.99267578125,-0.01708984375,-0.3658536585365854,-0.27439024390243905,0.030487804878048783,0.017,-0.006,0.993,-0.03,0.0,0.0,0.42,-0.99,6.23,1100,1100,1500,1500,0.06,0,3,1,1
402,182034712,1009,13,2032,-35,-11,-9,0,0.00634765625,0.9921875,-0.01708984375,-0.3353658536585366,-0.27439024390243905,0.0,0.017,-0.006,0.993,-0.02,-0.02,-0.01,0.42,-0.99,6.23,1100,1100,1500,1500,0.06,0,3,1,1
403,182035720,1008,14,2033,-36,-11,-10,0,0.0068359375,0.99267578125,-0.017578125,-0.3353658536585366,-0.30487804878048785,0.0,0.017,-0.006,0.993,-0.02,-0.03,-0.02,0.42,-0.99,6.23,1100,1100,1500,1500,0.05,0,3,1,1
404,182036728,1008,15,2034,-37,-12,-9,-1,0.00732421875,0.9931640625,-0.01806640625,-0.3658536585365854,-0.27439024390243905,-0.030487804878048783,0.017,-0.006,0.993,-0.01,-0.03,-0.01,0.42,-0.99,6.23,1100,1100,1500,1500,0.05,0,3,1,1
405,182037737,1009,16,2034,-37,-13,-8,0,0.0078125,0.9931640625,-0.01806640625,-0.39634146341463417,-0.24390243902439027,0.0,0.017,-0.006,0.993,-0.01,-0.02,0.0,0.42,-0.99,6.23,1100,1100,1500,1500,0.04,0,3,1,1
406,182038745,1008,16,2034,-37,-14,-8,1,0.0078125,0.9931640625,-0.01806640625,-0.426829268292683,-0.24390243902439027,0.030487804878048783,0.017,-0.006,0.993,-0.02,0.0,0.0,0.42,-0.99,6.23,1100,1100,1500,1500,0.03,0,3,1,1
407,182039753,1008,14,2035,-36,-14,-8,2,0.0068359375,0.99365234375,-0.017578125,-0.426829268292683,-0.24390243902439027,0.06097560975609757,0.017,-0.006,0.993,-0.04,0.0,0.0,0.42,-0.99,6.23,1100,1100,1500,1500,0.03,0,3,1,1
408,182040762,1009,13,2037,-35,-12,-9,2,0.00634765625,0.99462890625,-0.01708984375,-0.3658536585365854,-0.27439024390243905,0.06097560975609757,0.017,-0.006,0.993,-0.05,0.0,0.0,0.42,-0.99,6.23,1100,1100,1500,1500,0.04,0,3,1,1
409,182041770,1008,14,2039,-34,-12,-9,1,0.0068359375,0.99560546875,-0.0166015625,-0.3658536585365854,-0.27439024390243905,0.030487804878048783,0.017,-0.006,0.993,-0.05,-0.01,0.0,0.42,-0.99,6.23,1100,1100,1500,1500,0.03,0,3,1,1
410,182042779,1009,14,2037,-34,-13,-9,1,0.0068359375,0.99462890625,-0.0166015625,-0.39634146341463417,-0.27439024390243905,0.030487804878048783,0.017,-0.006,0.993,-0.05,0.0,0.0,0.42,-0.99,6.23,1100,1100,1500,1500,0.03,0,3,1,1
411,182043787,1008,14,2035,-34,-13,-9,1,0.0068359375,0.99365234375,-0.0166015625,-0.39634146341463417,-0.27439024390243905,0.030487804878048783,0.017,-0.006,0.993,-0.05,0.0,-0.01,0.42,-0.99,6.23,1100,1100,1500,1500,0.03,0,3,1,1
412,182044795,1008,15,2034,-33,-12,-9,0,0.00732421875,0.9931640625,-0.01611328125,-0.3658536585365854,-0.27439024390243905,0.0,0.016,-0.006,0.993,-0.04,-0.01,-0.01,0.42,-0.99,6.23,1100,1100,1500,1500,0.03,0,3,1,1
413,182045804,1009,15,2034,-33,-12,-10,1,0.00732421875,0.9931640625,-0.01611328125,-0.3658536585365854,-0.30487804878048785,0.030487804878048783,0.016,-0.006,0.993,-0.04,-0.01,-0.02,0.42,-0.99,6.23,1100,1100,1500,1500,0.03,0,3,1,1
414,182046812,1008,15,2035,-34,-12,-10,1,0.00732421875,0.99365234375,-0.0166015625,-0.3658536585365854,-0.30487804878048785,0.030487804878048783,0.016,-0.007,0.993,-0.04,-0.02,-0.02,0.42,-0.99,6.23,1100,1100,1500,1500,0.03,0,3,1,1
415,182047820,1008,15,2035,-36,-13,-9,1,0.00732421875,0.99365234375,-0.017578125,-0.39634146341463417,-0.27439024390243905,0.030487804878048783,0.016,-0.007,0.993,-0.04,-0.01,-0.02,0.42,-0.99,6.23,1100,1100,1500,1500,0.02,0,3,1,1
416,182048829,1009,15,2036,-36,-12,-9,1,0.00732421875,0.994140625,-0.017578125,-0.3658536585365854,-0.27439024390243905,0.030487804878048783,0.017,-0.007,0.993,-0.04,-0.01,-0.02,0.42,-0.99,6.23,1100,1100,1500,1500,0.02,0,3,1,1
417,182049837,1008,16,2036,-36,-11,-9,1,0.0078125,0.994140625,-0.017578125,-0.3353658536585366,-0.27439024390243905,0.030487804878048783,0.017,-0.007,0.993,-0.05,-0.03,-0.01,0.42,-0.99,6.23,1100,1100,1500,1500,0.01,0,3,1,1
418,182050845,1008,15,2036,-36,-11,-9,1,0.00732421875,0.994140625,-0.017578125,-0.3353658536585366,-0.27439024390243905,0.030487804878048783,0.017,-0.007,0.993,-0.05,-0.04,-0.01,0.42,-0.99,6.23,1100,1100,1500,1500,0.01,0,3,1,1
419,182051854,1009,13,2036,-35,-12,-8,0,0.00634765625,0.994140625,-0.01708984375,-0.3658536585365854,-0.24390243902439027,0.0,0.017,-0.007,0.993,-0.04,-0.03,0.0,0.42,-0.99,6.23,1100,1100,1500,1500,0.02,0,3,1,1
420,182052862,1008,12,2036,-35,-12,-8,0,0.005859375,0.994140625,-0.01708984375,-0.3658536585365854,-0.24390243902439027,0.0,0.017,-0.006,0.993,-0.03,-0.03,0.0,0.42,-0.99,6.23,1100,1100,1500,1500,0.03,0,3,1,1
421,182053871,1009,12,2034,-34,-12,-8,1,0.005859375,0.9931640625,-0.0166015625,-0.3658536585365854,-0.24390243902439027,0.030487804878048783,0.017,-0.006,0.993,-0.03,-0.03,0.0,0.42,-0.99,6.23,1100,1100,1500,1500,0.04,0,3,1,1
422,182054879,1008,12,2033,-34,-12,-9,1,0.005859375,0.99267578125,-0.0166015625,-0.3658536585365854,-0.27439024390243905,0.030487804878048783,0.016,-0.006,0.993,-0.04,-0.03,0.0,0.42,-0.99,6.23,1100,1100,1500,1500,0.05,0,3,1,1
423,182055887,1008,14,2033,-35,-11,-9,0,0.0068359375,0.99267578125,-0.01708984375,-0.3353658536585366,-0.27439024390243905,0.0,0.017,-0.006,0.993,-0.03,-0.04,0.0,0.42,-0.99,6.23,1100,1100,1500,1500,0.04,0,3,1,1
424,182056896,1009,15,2034,-38,-11,-9,-1,0.00732421875,0.9931640625,-0.0185546875,-0.3353658536585366,-0.27439024390243905,-0.030487804878048783,0.017,-0.006,0.993,-0.02,-0.04,0.0,0.42,-0.99,6.23,1100,1100,1500,1500,0.04,0,3,1,1
425,182057904,1008,16,2036,-38,-10,-9,-1,0.0078125,0.994140625,-0.0185546875,-0.30487804878048785,-0.27439024390243905,-0.030487804878048783,0.017,-0.006,0.993,-0.01,-0.06,0.0,0.42,-0.99,6.23,1100,1100,1500,1500,0.03,0,3,1,1
426,182058912,1008,15,2037,-36,-9,-9,-1,0.00732421875,0.99462890625,-0.017578125,-0.27439024390243905,-0.27439024390243905,-0.030487804878048783,0.017,-0.006,0.993,0.0,-0.08,-0.01,0.42,-0.99,6.23,1100,1100,1500,1500,0.03,0,3,1,1
427,182059921,1009,13,2038,-35,-9,-9,-2,0.00634765625,0.9951171875,-0.01708984375,-0.27439024390243905,-0.27439024390243905,-0.06097560975609757,0.017,-0.006,0.993,0.01,-0.09,-0.01,0.42,-0.99,6.23,1100,1100,1500,1500,0.03,0,3,1,1
428,182060929,1008,13,2036,-36,-11,-10,-1,0.00634765625,0.994140625,-0.017578125,-0.3353658536585366,-0.30487804878048785,-0.030487804878048783,0.017,-0.006,0.993,0.01,-0.08,-0.02,0.42,-0.99,6.23,1100,1100,1500,1500,0.04,0,3,1,1
429,182061937,1008,14,2034,-37,-14,-10,0,0.0068359375,0.9931640625,-0.01806640625,-0.426829268292683,-0.30487804878048785,0.0,0.017,-0.006,0.993,0.0,-0.04,-0.03,0.42,-0.99,6.23,1100,1100,1500,1500,0.04,0,3,1,1
430,182062946,1009,13,2033,-37,-13,-9,0,0.00634765625,0.99267578125,-0.01806640625,-0.39634146341463417,-0.27439024390243905,0.0,0.017,-0.006,0.993,0.0,-0.02,-0.02,0.42,-0.99,6.23,1100,1100,1500,1500,0.04,0,3,1,1
431,182063954,1008,13,2034,-37,-12,-9,0,0.00634765625,0.9931640625,-0.01806640625,-0.3658536585365854,-0.27439024390243905,0.0,0.017,-0.006,0.993,-0.01,-0.02,-0.02,0.42,-0.99,6.23,1100,1100,1500,1500,0.05,0,3,1,1
432,182064963,1009,14,2035,-37,-13,-9,0,0.0068359375,0.99365234375,-0.01806640625,-0.39634146341463417,-0.27439024390243905,0.0,0.017,-0.006,0.993,-0.01,-0.01,-0.01,0.42,-0.99,6.23,1100,1100,1500,1500,0.05,0,3,1,1
433,182065971,1008,13,2034,-37,-13,-10,-1,0.00634765625,0.9931640625,-0.01806640625,-0.39634146341463417,-0.30487804878048785,-0.030487804878048783,0.017,-0.006,0.993,0.0,-0.01,-0.02,0.42,-0.99,6.23,1100,1100,1500,1500,0.05,0,3,1,1
434,182066979,1008,13,2033,-36,-13,-9,-1,0.00634765625,0.99267578125,-0.017578125,-0.39634146341463417,-0.27439024390243905,-0.030487804878048783,0.017,-0.006,0.993,0.0,0.0,-0.02,0.42,-0.99,6.23,1100,1100,1500,1500,0.05,0,3,1,1
435,182067987,1008,13,2033,-37,-13,-8,0,0.00634765625,0.99267578125,-0.01806640625,-0.39634146341463417,-0.24390243902439027,0.0,0.017,-0.006,0.993,0.0,0.0,0.0,0.42,-0.99,6.23,1100,1100,1500,1500,0.06,0,3,1,1
436,182068995,1008,13,2034,-39,-13,-7,1,0.00634765625,0.9931640625,-0.01904296875,-0.39634146341463417,-0.2134146341463415,0.030487804878048783,0.018,-0.006,0.993,-0.02,0.0,0.0,0.42,-0.99,6.23,1100,1100,1500,1500,0.07,0,3,1,1
437,182070004,1009,13,2035,-39,-13,-8,0,0.00634765625,0.99365234375,-0.01904296875,-0.39634146341463417,-0.24390243902439027,0.0,0.018,-0.006,0.993,-0.02,0.0,0.01,0.42,-0.99,6.23,1100,1100,1500,1500,0.07,0,3,1,1
438,182071012,1008,12,2034,-38,-13,-8,-1,0.005859375,0.9931640625,-0.0185546875,-0.39634146341463417,-0.24390243902439027,-0.030487804878048783,0.018,-0.006,0.993,-0.01,0.0,0.01,0.42,-0.99,6.23,1100,1100,1500,1500,0.08,0,3,1,1
439,182072019,1007,12,2035,-38,-12,-9,-2,0.005859375,0.99365234375,-0.0185546875,-0.3658536585365854,-0.27439024390243905,-0.06097560975609757,0.018,-0.006,0.993,0.0,0.0,0.0,0.42,-0.99,6.23,1100,1100,1500,1500,0.09,0,3,1,1
440,182073027,1008,13,2035,-40,-13,-9,-1,0.00634765625,0.99365234375,-0.01953125,-0.39634146341463417,-0.27439024390243905,-0.030487804878048783,0.018,-0.006,0.993,0.0,0.0,0.0,0.42,-0.99,6.23,1100,1100,1500,1500,0.09,0,3,1,1
441,182074036,1009,14,2036,-39,-15,-9,0,0.0068359375,0.994140625,-0.01904296875,-0.4573170731707317,-0.27439024390243905,0.0,0.018,-0.006,0.993,0.0,0.01,0.0,0.42,-0.99,6.23,1100,1100,1500,1500,0.09,0,3,1,1
442,182075044,1008,14,2037,-35,-14,-9,1,0.0068359375,0.99462890625,-0.01708984375,-0.426829268292683,-0.27439024390243905,0.030487804878048783,0.018,-0.006,0.993,-0.01,0.02,0.0,0.42,-0.99,6.23,1100,1100,1500,1500,0.08,0,3,1,1
443,182076052,1008,12,2037,-33,-12,-9,1,0.005859375,0.99462890625,-0.01611328125,-0.3658536585365854,-0.27439024390243905,0.030487804878048783,0.017,-0.006,0.993,-0.02,0.0,-0.01,0.42,-0.99,6.23,1100,1100,1500,1500,0.07,0,3,1,1
444,182077061,1009,11,2037,-34,-11,-10,0,0.00537109375,0.99462890625,-0.0166015625,-0.3353658536585366,-0.30487804878048785,0.0,0.017,-0.006,0.993,-0.02,-0.01,-0.02,0.42,-0.99,6.23,1100,1100,1500,1500,0.07,0,3,1,1
445,182078069,1008,12,2037,-35,-12,-10,0,0.005859375,0.99462890625,-0.01708984375,-0.3658536585365854,-0.30487804878048785,0.0,0.017,-0.006,0.994,-0.02,-0.02,-0.02,0.42,-0.99,6.23,1100,1100,1500,1500,0.07,0,3,1,1
446,182079077,1008,12,2037,-37,-14,-8,-1,0.005859375,0.99462890625,-0.01806640625,-0.426829268292683,-0.24390243902439027,-0.030487804878048783,0.017,-0.006,0.994,-0.01,0.0,-0.01,0.42,-0.99,6.23,1100,1100,1500,1500,0.08,0,3,1,1
447,182080086,1009,12,2035,-37,-16,-8,-1,0.005859375,0.99365234375,-0.01806640625,-0.48780487804878053,-0.24390243902439027,-0.030487804878048783,0.017,-0.006,0.994,0.0,0.02,0.0,0.42,-0.99,6.23,1100,1100,1500,1500,0.08,0,3,1,1
448,182081094,1008,12,2032,-36,-14,-8,0,0.005859375,0.9921875,-0.017578125,-0.426829268292683,-0.24390243902439027,0.0,0.017,-0.006,0.993,-0.01,0.03,0.0,0.42,-0.99,6.23,1100,1100,1500,1500,0.08,0,3,1,1
449,182082103,1009,12,2033,-34,-11,-9,0,0.005859375,0.99267578125,-0.0166015625,-0.3353658536585366,-0.27439024390243905,0.0,0.017,-0.006,0.993,-0.01,0.0,0.0,0.42,-0.99,6.23,1100,1100,1500,1500,0.08,0,3,1,1
450,182083111,1008,12,2034,-32,-10,-9,0,0.005859375,0.9931640625,-0.015625,-0.30487804878048785,-0.27439024390243905,0.0,0.017,-0.005,0.993,-0.01,-0.02,0.0,0.42,-0.99,6.23,1100,1100,1500,1500,0.08,0,3,1,1
451,182084119,1008,13,2035,-32,-10,-8,2,0.00634765625,0.99365234375,-0.015625,-0.30487804878048785,-0.24390243902439027,0.06097560975609757,0.016,-0.006,0.993,-0.03,-0.04,0.0,0.42,-0.99,6.23,1100,1100,1500,1500,0.08,0,3,1,1
452,182085128,1009,14,2034,-32,-12,-6,2,0.0068359375,0.9931640625,-0.015625,-0.3658536585365854,-0.1829268292682927,0.06097560975609757,0.016,-0.006,0.993,-0.05,-0.04,0.02,0.42,-0.99,6.23,1100,1100,1500,1500,0.07,0,3,1,1
453,182086136,1008,15,2033,-32,-13,-8,0,0.00732421875,0.99267578125,-0.015625,-0.39634146341463417,-0.24390243902439027,0.0,0.016,-0.006,0.993,-0.04,-0.02,0.02,0.42,-0.99,6.23,1100,1100,1500,1500,0.07,0,3,1,1
454,182087146,1010,15,2034,-34,-13,-8,0,0.00732421875,0.9931640625,-0.0166015625,-0.39634146341463417,-0.24390243902439027,0.0,0.016,-0.006,0.993,-0.03,-0.01,0.02,0.42,-0.99,6.23,1100,1100,1500,1500,0.06,0,3,1,1
455,182088153,1007,14,2035,-36,-13,-8,0,0.0068359375,0.99365234375,-0.017578125,-0.39634146341463417,-0.24390243902439027,0.0,0.016,-0.006,0.993,-0.03,-0.01,0.01,0.42,-0.99,6.23,1100,1100,1500,1500,0.05,0,3,1,1
456,182089161,1008,13,2035,-35,-12,-8,0,0.00634765625,0.99365234375,-0.01708984375,-0.3658536585365854,-0.24390243902439027,0.0,0.016,-0.006,0.993,-0.02,-0.01,0.01,0.42,-0.99,6.23,1100,1100,1500,1500,0.05,0,3,1,1
457,182090169,1008,12,2037,-34,-11,-9,1,0.005859375,0.99462890625,-0.0166015625,-0.3353658536585366,-0.27439024390243905,0.030487804878048783,0.016,-0.006,0.993,-0.03,-0.03,0.0,0.42,-0.99,6.23,1100,1100,1500,1500,0.06,0,3,1,1
458,182091178,1009,13,2038,-34,-12,-8,1,0.00634765625,0.9951171875,-0.0166015625,-0.3658536585365854,-0.24390243902439027,0.030487804878048783,0.016,-0.006,0.993,-0.04,-0.03,0.01,0.42,-0.99,6.23,1100,1100,1500,1500,0.06,0,3,1,1
459,182092186,1008,15,2037,-35,-13,-8,1,0.00732421875,0.99462890625,-0.01708984375,-0.39634146341463417,-0.24390243902439027,0.030487804878048783,0.016,-0.006,0.993,-0.04,-0.01,0.01,0.42,-0.99,6.23,1100,1100,1500,1500,0.05,0,3,1,1
460,182093195,1009,17,2037,-35,-15,-8,0,0.00830078125,0.99462890625,-0.01708984375,-0.4573170731707317,-0.24390243902439027,0.0,0.016,-0.006,0.994,-0.03,0.0,0.01,0.42,-0.99,6.23,1100,1100,1500,1500,0.04,0,3,1,1
461,182094203,1008,16,2037,-34,-15,-8,-1,0.0078125,0.99462890625,-0.0166015625,-0.4573170731707317,-0.24390243902439027,-0.030487804878048783,0.016,-0.006,0.994,-0.02,0.02,0.01,0.42,-0.99,6.23,1100,1100,1500,1500,0.03,0,3,1,1
462,182095211,1008,12,2037,-33,-14,-9,-2,0.005859375,0.99462890625,-0.01611328125,-0.426829268292683,-0.27439024390243905,-0.06097560975609757,0.016,-0.006,0.994,0.0,0.02,0.0,0.42,-0.99,6.23,1100,1100,1500,1500,0.04,0,3,1,1
463,182096220,1009,12,2037,-32,-12,-9,-1,0.005859375,0.99462890625,-0.015625,-0.3658536585365854,-0.27439024390243905,-0.030487804878048783,0.016,-0.006,0.994,0.0,0.0,0.0,0.42,-0.99,6.23,1100,1100,1500,1500,0.06,0,3,1,1
464,182097228,1008,13,2038,-33,-10,-9,0,0.00634765625,0.9951171875,-0.01611328125,-0.30487804878048785,-0.27439024390243905,0.0,0.016,-0.006,0.994,0.0,-0.02,0.0,0.42,-0.99,6.23,1100,1100,1500,1500,0.06,0,3,1,1
465,182098236,1008,14,2038,-34,-10,-9,0,0.0068359375,0.9951171875,-0.0166015625,-0.30487804878048785,-0.27439024390243905,0.0,0.016,-0.006,0.994,-0.01,-0.04,0.0,0.42,-0.99,6.23,1100,1100,1500,1500,0.06,0,3,1,1
466,182099245,1009,13,2036,-35,-11,-9,0,0.00634765625,0.994140625,-0.01708984375,-0.3353658536585366,-0.27439024390243905,0.0,0.016,-0.006,0.994,-0.01,-0.05,-0.01,0.42,-0.99,6.23,1100,1100,1500,1500,0.06,0,3,1,1
467,182100253,1008,11,2035,-35,-12,-9,1,0.00537109375,0.99365234375,-0.01708984375,-0.3658536585365854,-0.27439024390243905,0.030487804878048783,0.016,-0.006,0.994,-0.02,-0.04,-0.01,0.42,-0.99,6.23,1100,1100,1500,1500,0.06,0,3,1,1
468,182101261,1008,11,2035,-35,-13,-9,1,0.00537109375,0.99365234375,-0.01708984375,-0.39634146341463417,-0.27439024390243905,0.030487804878048783,0.016,-0.006,0.994,-0.03,-0.02,-0.01,0.42,-0.99,6.23,1100,1100,1500,1500,0.07,0,3,1,1
469,182102270,1009,11,2035,-34,-12,-9,2,0.00537109375,0.99365234375,-0.0166015625,-0.3658536585365854,-0.27439024390243905,0.06097560975609757,0.016,-0.006,0.994,-0.05,-0.02,-0.01,0.42,-0.99,6.23,1100,1100,1500,1500,0.08,0,3,1,1
470,182103278,1008,12,2035,-34,-11,-9,2,0.005859375,0.99365234375,-0.0166015625,-0.3353658536585366,-0.27439024390243905,0.06097560975609757,0.016,-0.006,0.994,-0.06,-0.03,-0.01,0.42,-0.99,6.23,1100,1100,1500,1500,0.08,0,3,1,1
471,182104287,1009,13,2036,-35,-11,-10,1,0.00634765625,0.994140625,-0.01708984375,-0.3353658536585366,-0.30487804878048785,0.030487804878048783,0.016,-0.006,0.994,-0.05,-0.04,-0.02,0.42,-0.99,6.23,1100,1100,1500,1500,0.08,0,3,1,1
472,182105295,1008,13,2035,-37,-12,-10,0,0.00634765625,0.99365234375,-0.01806640625,-0.3658536585365854,-0.30487804878048785,0.0,0.016,-0.006,0.994,-0.04,-0.03,-0.03,0.42,-0.99,6.23,1100,1100,1500,1500,0.07,0,3,1,1
473,182106303,1008,14,2034,-38,-12,-9,-1,0.0068359375,0.9931640625,-0.0185546875,-0.3658536585365854,-0.27439024390243905,-0.030487804878048783,0.017,-0.006,0.993,-0.02,-0.03,-0.02,0.42,-0.99,6.23,1100,1100,1500,1500,0.06,0,3,1,1
474,182107312,1009,14,2034,-39,-12,-9,-1,0.0068359375,0.9931640625,-0.01904296875,-0.3658536585365854,-0.27439024390243905,-0.030487804878048783,0.017,-0.006,0.993,-0.01,-0.03,-0.02,0.42,-0.99,6.23,1100,1100,1500,1500,0.06,0,3,1,1
475,182108320,1008,14,2035,-36,-13,-9,0,0.0068359375,0.99365234375,-0.017578125,-0.39634146341463417,-0.27439024390243905,0.0,0.017,-0.006,0.993,-0.01,-0.02,-0.01,0.42,-0.99,6.23,1100,1100,1500,1500,0.06,0,3,1,1
476,182109328,1008,13,2034,-33,-15,-9,1,0.00634765625,0.9931640625,-0.01611328125,-0.4573170731707317,-0.27439024390243905,0.030487804878048783,0.017,-0.006,0.993,-0.02,0.0,-0.01,0.42,-0.99,6.23,1100,1100,1500,1500,0.05,0,3,1,1
477,182110337,1009,12,2032,-33,-15,-9,1,0.005859375,0.9921875,-0.01611328125,-0.4573170731707317,-0.27439024390243905,0.030487804878048783,0.017,-0.006,0.993,-0.03,0.02,-0.01,0.42,-0.99,6.23,1100,1100,1500,1500,0.06,0,3,1,1
478,182111345,1008,12,2033,-33,-15,-9,1,0.005859375,0.99267578125,-0.01611328125,-0.4573170731707317,-0.27439024390243905,0.030487804878048783,0.016,-0.006,0.993,-0.04,0.03,-0.01,0.42,-0.99,6.23,1100,1100,1500,1500,0.07,0,3,1,1
479,182112353,1008,12,2036,-34,-16,-9,2,0.005859375,0.994140625,-0.0166015625,-0.48780487804878053,-0.27439024390243905,0.06097560975609757,0.016,-0.006,0.993,-0.05,0.05,-0.01,0.42,-0.99,6.23,1100,1100,1500,1500,0.07,0,3,1,1
480,182113362,1009,13,2036,-37,-17,-9,1,0.00634765625,0.994140625,-0.01806640625,-0.5182926829268293,-0.27439024390243905,0.030487804878048783,0.017,-0.006,0.993,-0.05,0.07,-0.01,0.42,-0.99,6.23,1100,1100,1500,1500,0.07,0,3,1,1
481,182114370,1008,14,2033,-38,-15,-9,1,0.0068359375,0.99267578125,-0.0185546875,-0.4573170731707317,-0.27439024390243905,0.030487804878048783,0.017,-0.006,0.993,-0.05,0.07,-0.01,0.42,-0.99,6.23,1100,1100,1500,1500,0.06,0,3,1,1
482,182115379,1009,14,2032,-37,-13,-8,0,0.0068359375,0.9921875,-0.01806640625,-0.39634146341463417,-0.24390243902439027,0.0,0.017,-0.006,0.993,-0.04,0.04,0.0,0.42,-0.99,6.23,1100,1100,1500,1500,0.06,0,3,1,1
483,182116387,1008,13,2035,-36,-12,-8,0,0.00634765625,0.99365234375,-0.017578125,-0.3658536585365854,-0.24390243902439027,0.0,0.017,-0.006,0.993,-0.03,0.02,0.0,0.42,-0.99,6.23,1100,1100,1500,1500,0.06,0,3,1,1
484,182117395,1008,13,2036,-36,-14,-10,1,0.00634765625,0.994140625,-0.017578125,-0.426829268292683,-0.30487804878048785,0.030487804878048783,0.017,-0.006,0.993,-0.04,0.02,-0.01,0.42,-0.99,6.23,1100,1100,1500,1500,0.06,0,3,1,1
485,182118404,1009,13,2035,-36,-16,-10,2,0.00634765625,0.99365234375,-0.017578125,-0.48780487804878053,-0.30487804878048785,0.06097560975609757,0.017,-0.006,0.993,-0.05,0.04,-0.02,0.42,-0.99,6.23,1100,1100,1500,1500,0.06,0,3,1,1
486,182119412,1008,14,2035,-35,-15,-9,1,0.0068359375,0.99365234375,-0.01708984375,-0.4573170731707317,-0.27439024390243905,0.030487804878048783,0.017,-0.006,0.993,-0.05,0.05,-0.02,0.42,-0.99,6.23,1100,1100,1500,1500,0.05,0,3,1,1
487,182120420,1008,15,2035,-36,-13,-9,1,0.00732421875,0.99365234375,-0.017578125,-0.39634146341463417,-0.27439024390243905,0.030487804878048783,0.017,-0.006,0.993,-0.05,0.03,-0.01,0.42,-0.99,6.23,1100,1100,1500,1500,0.05,0,3,1,1
488,182121429,1009,15,2034,-37,-12,-9,1,0.00732421875,0.9931640625,-0.01806640625,-0.3658536585365854,-0.27439024390243905,0.030487804878048783,0.017,-0.006,0.993,-0.05,0.01,-0.01,0.42,-0.99,6.23,1100,1100,1500,1500,0.04,0,3,1,1
489,182122437,1008,14,2033,-39,-12,-8,2,0.0068359375,0.99267578125,-0.01904296875,-0.3658536585365854,-0.24390243902439027,0.06097560975609757,0.017,-0.006,0.993,-0.06,0.0,0.0,0.42,-0.99,6.23,1100,1100,1500,1500,0.05,0,3,1,1
490,182123445,1008,14,2034,-40,-13,-8,1,0.0068359375,0.9931640625,-0.01953125,-0.39634146341463417,-0.24390243902439027,0.030487804878048783,0.018,-0.006,0.993,-0.05,0.0,0.0,0.42,-0.99,6.23,1100,1100,1500,1500,0.06,0,3,1,1
491,182124454,1009,13,2034,-38,-14,-9,1,0.00634765625,0.9931640625,-0.0185546875,-0.426829268292683,-0.27439024390243905,0.030487804878048783,0.018,-0.006,0.993,-0.05,0.01,0.0,0.42,-0.99,6.23,1100,1100,1500,1500,0.06,0,3,1,1
492,182125462,1008,14,2035,-36,-13,-8,1,0.0068359375,0.99365234375,-0.017578125,-0.39634146341463417,-0.24390243902439027,0.030487804878048783,0.018,-0.006,0.993,-0.05,0.0,0.0,0.42,-0.99,6.23,1100,1100,1500,1500,0.06,0,3,1,1
493,182126471,1009,13,2037,-35,-13,-8,1,0.00634765625,0.99462890625,-0.01708984375,-0.39634146341463417,-0.24390243902439027,0.030487804878048783,0.017,-0.006,0.993,-0.05,0.0,0.0,0.42,-0.99,6.23,1100,1100,1500,1500,0.06,0,3,1,1
494,182127479,1008,13,2037,-37,-14,-8,0,0.00634765625,0.99462890625,-0.01806640625,-0.426829268292683,-0.24390243902439027,0.0,0.017,-0.006,0.993,-0.04,0.01,0.01,0.42,-0.99,6.23,1100,1100,1500,1500,0.06,0,3,1,1
495,182128487,1008,13,2036,-37,-15,-7,-1,0.00634765625,0.994140625,-0.01806640625,-0.4573170731707317,-0.2134146341463415,-0.030487804878048783,0.017,-0.006,0.993,-0.02,0.03,0.02,0.42,-0.99,6.23,1100,1100,1500,1500,0.06,0,3,1,1
496,182129496,1009,13,2035,-36,-14,-7,-1,0.00634765625,0.99365234375,-0.017578125,-0.426829268292683,-0.2134146341463415,-0.030487804878048783,0.017,-0.006,0.993,-0.01,0.03,0.03,0.42,-0.99,6.23,1100,1100,1500,1500,0.06,0,3,1,1
497,182130504,1008,11,2034,-36,-11,-9,-1,0.00537109375,0.9931640625,-0.017578125,-0.3353658536585366,-0.27439024390243905,-0.030487804878048783,0.017,-0.006,0.993,0.0,0.0,0.01,0.42,-0.99,6.23,1100,1100,1500,1500,0.07,0,3,1,1
498,182131512,1008,12,2033,-37,-12,-11,-1,0.005859375,0.99267578125,-0.01806640625,-0.3658536585365854,-0.3353658536585366,-0.030487804878048783,0.017,-0.006,0.993,0.0,0.0,-0.01,0.42,-0.99,6.23,1100,1100,1500,1500,0.07,0,3,1,1
499,182132521,1009,14,2033,-37,-14,-12,0,0.0068359375,0.99267578125,-0.01806640625,-0.426829268292683,-0.3658536585365854,0.0,0.017,-0.006,0.993,0.0,0.0,-0.04,0.42,-0.99,6.23,1100,1100,1500,1500,0.07,0,3,1,1
500,182133529,1008,16,2034,-36,-15,-12,0,0.0078125,0.9931640625,-0.017578125,-0.4573170731707317,-0.3658536585365854,0.0,0.017,-0.006,0.993,-0.01,0.02,-0.06,0.42,-0.99,6.23,1100,1100,1500,1500,0.06,0,3,1,1
501,182134537,1008,16,2034,-36,-15,-11,1,0.0078125,0.9931640625,-0.017578125,-0.4573170731707317,-0.3353658536585366,0.030487804878048783,0.017,-0.006,0.993,-0.02,0.03,-0.06,0.42,-0.99,6.23,1100,1100,1500,1500,0.05,0,3,1,1
502,182135544,1007,15,2036,-35,-15,-10,0,0.00732421875,0.994140625,-0.01708984375,-0.4573170731707317,-0.30487804878048785,0.0,0.017,-0.006,0.993,-0.02,0.04,-0.06,0.42,-0.99,6.23,1100,1100,1500,1500,0.04,0,3,1,1
503,182136552,1008,14,2037,-36,-15,-9,0,0.0068359375,0.99462890625,-0.017578125,-0.4573170731707317,-0.27439024390243905,0.0,0.017,-0.006,0.993,-0.02,0.05,-0.04,0.42,-0.99,6.23,1100,1100,1500,1500,0.04,0,3,1,1
504,182137561,1009,12,2036,-38,-14,-8,-1,0.005859375,0.994140625,-0.0185546875,-0.426829268292683,-0.24390243902439027,-0.030487804878048783,0.017,-0.006,0.993,-0.01,0.04,-0.02,0.42,-0.99,6.23,1100,1100,1500,1500,0.05,0,3,1,1
505,182138569,1008,13,2036,-38,-11,-8,-1,0.00634765625,0.994140625,-0.0185546875,-0.3353658536585366,-0.24390243902439027,-0.030487804878048783,0.017,-0.006,0.993,0.0,0.01,-0.01,0.42,-0.99,6.23,1100,1100,1500,1500,0.06,0,3,1,1
506,182139577,1008,14,2036,-39,-9,-8,0,0.0068359375,0.994140625,-0.01904296875,-0.27439024390243905,-0.24390243902439027,0.0,0.018,-0.006,0.993,-0.01,-0.03,0.0,0.42,-0.99,6.23,1100,1100,1500,1500,0.06,0,3,1,1
507,182140586,1009,14,2035,-40,-9,-8,0,0.0068359375,0.99365234375,-0.01953125,-0.27439024390243905,-0.24390243902439027,0.0,0.018,-0.006,0.993,-0.01,-0.06,0.0,0.42,-0.99,6.23,1100,1100,1500,1500,0.07,0,3,1,1
508,182141594,1008,13,2034,-39,-9,-9,0,0.00634765625,0.9931640625,-0.01904296875,-0.27439024390243905,-0.27439024390243905,0.0,0.018,-0.006,0.993,-0.01,-0.08,0.0,0.42,-0.99,6.23,1100,1100,1500,1500,0.08,0,3,1,1
509,182142602,1008,12,2033,-38,-10,-9,0,0.005859375,0.99267578125,-0.0185546875,-0.30487804878048785,-0.27439024390243905,0.0,0.018,-0.006,0.993,-0.01,-0.08,0.0,0.42,-0.99,6.23,1100,1100,1500,1500,0.08,0,3,1,1
510,182143611,1009,13,2035,-39,-12,-9,0,0.00634765625,0.99365234375,-0.01904296875,-0.3658536585365854,-0.27439024390243905,0.0,0.018,-0.006,0.993,-0.01,-0.06,0.0,0.42,-0.99,6.23,1100,1100,1500,1500,0.09,0,3,1,1
511,182144619,1008,14,2036,-40,-13,-9,0,0.0068359375,0.994140625,-0.01953125,-0.39634146341463417,-0.27439024390243905,0.0,0.018,-0.006,0.993,-0.01,-0.04,-0.01,0.42,-0.99,6.23,1100,1100,1500,1500,0.1,0,3,1,1
512,182145628,1009,14,2037,-39,-13,-10,2,0.0068359375,0.99462890625,-0.01904296875,-0.39634146341463417,-0.30487804878048785,0.06097560975609757,0.018,-0.006,0.993,-0.04,-0.02,-0.02,0.42,-0.99,6.23,1100,1100,1500,1500,0.1,0,3,1,1
513,182146636,1008,13,2036,-38,-14,-9,2,0.00634765625,0.994140625,-0.0185546875,-0.426829268292683,-0.27439024390243905,0.06097560975609757,0.018,-0.006,0.993,-0.05,0.0,-0.01,0.42,-0.99,6.23,1100,1100,1500,1500,0.1,0,3,1,1
514,182147644,1008,14,2035,-37,-14,-8,1,0.0068359375,0.99365234375,-0.01806640625,-0.426829268292683,-0.24390243902439027,0.030487804878048783,0.018,-0.006,0.993,-0.05,0.0,0.0,0.42,-0.99,6.23,1100,1100,1500,1500,0.09,0,3,1,1
515,182148653,1009,16,2034,-36,-14,-9,0,0.0078125,0.9931640625,-0.017578125,-0.426829268292683,-0.27439024390243905,0.0,0.018,-0.006,0.993,-0.04,0.01,0.0,0.42,-0.99,6.23,1100,1100,1500,1500,0.08,0,3,1,1
516,182149661,1008,15,2032,-36,-13,-10,-1,0.00732421875,0.9921875,-0.017578125,-0.39634146341463417,-0.30487804878048785,-0.030487804878048783,0.018,-0.006,0.993,-0.02,0.01,-0.02,0.42,-0.99,6.23,1100,1100,1500,1500,0.07,0,3,1,1
517,182150669,1008,12,2033,-37,-12,-10,-1,0.005859375,0.99267578125,-0.01806640625,-0.3658536585365854,-0.30487804878048785,-0.030487804878048783,0.018,-0.006,0.993,-0.01,0.0,-0.02,0.42,-0.99,6.23,1100,1100,1500,1500,0.07,0,3,1,1
518,182151678,1009,11,2035,-36,-12,-10,0,0.00537109375,0.99365234375,-0.017578125,-0.3658536585365854,-0.30487804878048785,0.0,0.018,-0.006,0.993,-0.01,-0.01,-0.03,0.42,-0.99,6.23,1100,1100,1500,1500,0.07,0,3,1,1
519,182152686,1008,13,2037,-33,-13,-11,2,0.00634765625,0.99462890625,-0.01611328125,-0.39634146341463417,-0.3353658536585366,0.06097560975609757,0.017,-0.006,0.993,-0.03,0.0,-0.04,0.42,-0.99,6.23,1100,1100,1500,1500,0.06,0,3,1,1
520,182153694,1008,16,2037,-32,-14,-11,2,0.0078125,0.99462890625,-0.015625,-0.426829268292683,-0.3353658536585366,0.06097560975609757,0.017,-0.006,0.993,-0.05,0.0,-0.05,0.42,-0.99,6.23,1100,1100,1500,1500,0.04,0,3,1,1
521,182154703,1009,18,2036,-34,-15,-10,1,0.0087890625,0.994140625,-0.0166015625,-0.4573170731707317,-0.30487804878048785,0.030487804878048783,0.017,-0.007,0.993,-0.05,0.02,-0.05,0.42,-0.99,6.23,1100,1100,1500,1500,0.02,0,3,1,1
522,182155711,1008,17,2035,-36,-15,-9,1,0.00830078125,0.99365234375,-0.017578125,-0.4573170731707317,-0.27439024390243905,0.030487804878048783,0.017,-0.007,0.993,-0.05,0.03,-0.03,0.42,-0.99,6.23,1100,1100,1500,1500,0.01,0,3,1,1
523,182156720,1009,15,2037,-36,-14,-8,1,0.00732421875,0.99462890625,-0.017578125,-0.426829268292683,-0.24390243902439027,0.030487804878048783,0.017,-0.007,0.993,-0.05,0.03,-0.02,0.42,-0.99,6.23,1100,1100,1500,1500,0.01,0,3,1,1
524,182157728,1008,15,2038,-36,-13,-9,1,0.00732421875,0.9951171875,-0.017578125,-0.39634146341463417,-0.27439024390243905,0.030487804878048783,0.017,-0.007,0.994,-0.05,0.02,-0.01,0.42,-0.99,6.23,1100,1100,1500,1500,0.01,0,3,1,1
525,182158736,1008,13,2038,-35,-13,-9,0,0.00634765625,0.9951171875,-0.01708984375,-0.39634146341463417,-0.27439024390243905,0.0,0.017,-0.007,0.994,-0.04,0.01,-0.01,0.42,-0.99,6.23,1100,1100,1500,1500,0.02,0,3,1,1
526,182159745,1009,13,2037,-34,-13,-9,1,0.00634765625,0.99462890625,-0.0166015625,-0.39634146341463417,-0.27439024390243905,0.030487804878048783,0.017,-0.006,0.994,-0.04,0.01,-0.01,0.42,-0.99,6.23,1100,1100,1500,1500,0.02,0,3,1,1
527,182160753,1008,13,2036,-35,-13,-10,1,0.00634765625,0.994140625,-0.01708984375,-0.39634146341463417,-0.30487804878048785,0.030487804878048783,0.017,-0.006,0.994,-0.04,0.0,-0.02,0.42,-0.99,6.23,1100,1100,1500,1500,0.03,0,3,1,1
528,182161761,1008,13,2035,-37,-12,-9,1,0.00634765625,0.99365234375,-0.01806640625,-0.3658536585365854,-0.27439024390243905,0.030487804878048783,0.017,-0.006,0.994,-0.04,0.0,-0.02,0.42,-0.99,6.23,1100,1100,1500,1500,0.03,0,3,1,1
529,182162770,1009,13,2035,-37,-12,-9,0,0.00634765625,0.99365234375,-0.01806640625,-0.3658536585365854,-0.27439024390243905,0.0,0.017,-0.006,0.994,-0.03,-0.01,-0.01,0.42,-0.99,6.23,1100,1100,1500,1500,0.04,0,3,1,1
530,182163778,1008,13,2034,-36,-12,-8,1,0.00634765625,0.9931640625,-0.017578125,-0.3658536585365854,-0.24390243902439027,0.030487804878048783,0.017,-0.006,0.993,-0.04,-0.01,0.0,0.43,-0.99,6.23,1100,1100,1500,1500,0.04,0,3,1,1
531,182164786,1008,12,2032,-37,-13,-7,1,0.005859375,0.9921875,-0.01806640625,-0.39634146341463417,-0.2134146341463415,0.030487804878048783,0.017,-0.006,0.993,-0.04,-0.01,0.01,0.43,-0.99,6.23,1100,1100,1500,1500,0.05,0,3,1,1
532,182165795,1009,10,2032,-38,-13,-7,1,0.0048828125,0.9921875,-0.0185546875,-0.39634146341463417,-0.2134146341463415,0.030487804878048783,0.017,-0.006,0.993,-0.04,0.0,0.02,0.43,-0.99,6.23,1100,1100,1500,1500,0.07,0,3,1,1
533,182166803,1008,10,2034,-36,-11,-7,1,0.0048828125,0.9931640625,-0.017578125,-0.3353658536585366,-0.2134146341463415,0.030487804878048783,0.017,-0.006,0.993,-0.04,-0.02,0.03,0.43,-0.99,6.23,1100,1100,1500,1500,0.08,0,3,1,1
534,182167812,1009,11,2034,-35,-10,-7,1,0.00537109375,0.9931640625,-0.01708984375,-0.30487804878048785,-0.2134146341463415,0.030487804878048783,0.017,-0.005,0.993,-0.04,-0.04,0.03,0.43,-0.99,6.23,1100,1100,1500,1500,0.08,0,3,1,1
535,182168820,1008,11,2033,-35,-11,-8,0,0.00537109375,0.99267578125,-0.01708984375,-0.3353658536585366,-0.24390243902439027,0.0,0.017,-0.005,0.993,-0.04,-0.05,0.02,0.43,-0.99,6.23,1100,1100,1500,1500,0.09,0,3,1,1
536,182169828,1008,13,2033,-36,-12,-10,1,0.00634765625,0.99267578125,-0.017578125,-0.3658536585365854,-0.30487804878048785,0.030487804878048783,0.017,-0.005,0.993,-0.04,-0.04,0.0,0.43,-0.99,6.23,1100,1100,1500,1500,0.08,0,3,1,1
537,182170837,1009,14,2035,-36,-12,-10,1,0.0068359375,0.99365234375,-0.017578125,-0.3658536585365854,-0.30487804878048785,0.030487804878048783,0.017,-0.006,0.993,-0.04,-0.03,-0.01,0.43,-0.99,6.23,1100,1100,1500,1500,0.08,0,3,1,1
538,182171845,1008,14,2036,-37,-12,-9,1,0.0068359375,0.994140625,-0.01806640625,-0.3658536585365854,-0.27439024390243905,0.030487804878048783,0.017,-0.006,0.993,-0.04,-0.03,-0.01,0.43,-0.99,6.23,1100,1100,1500,1500,0.07,0,3,1,1
539,182172853,1008,13,2037,-38,-13,-9,1,0.00634765625,0.99462890625,-0.0185546875,-0.39634146341463417,-0.27439024390243905,0.030487804878048783,0.017,-0.006,0.993,-0.04,-0.02,-0.01,0.43,-0.99,6.23,1100,1100,1500,1500,0.07,0,3,1,1
540,182173862,1009,13,2037,-37,-12,-9,2,0.00634765625,0.99462890625,-0.01806640625,-0.3658536585365854,-0.27439024390243905,0.06097560975609757,0.017,-0.006,0.993,-0.06,-0.02,-0.01,0.43,-0.99,6.23,1100,1100,1500,1500,0.07,0,3,1,1
541,182174870,1008,15,2036,-37,-11,-10,2,0.00732421875,0.994140625,-0.01806640625,-0.3353658536585366,-0.30487804878048785,0.06097560975609757,0.017,-0.006,0.993,-0.06,-0.03,-0.02,0.43,-0.99,6.23,1100,1100,1500,1500,0.07,0,3,1,1
542,182175878,1008,13,2035,-38,-13,-10,2,0.00634765625,0.99365234375,-0.0185546875,-0.39634146341463417,-0.30487804878048785,0.06097560975609757,0.017,-0.006,0.993,-0.07,-0.02,-0.03,0.43,-0.99,6.23,1100,1100,1500,1500,0.07,0,3,1,1
