index,timestamp_us,dt_us,raw_accel_x,raw_accel_y,raw_accel_z,raw_gyro_x,raw_gyro_y,raw_gyro_z,accel_x_g,accel_y_g,accel_z_g,gyro_x_dps,gyro_y_dps,gyro_z_dps,accel_filt_x_g,accel_filt_y_g,accel_filt_z_g,gyro_filt_x_dps,gyro_filt_y_dps,gyro_filt_z_dps,roll_deg,pitch_deg,yaw_deg,motor_upper_us,motor_lower_us,servo_alpha_us,servo_beta_us,accel_error_deg,fusion_flags,flight_flags,armed,gyro_bias_ready
0,55947806,,82,1806,158,-22,51,-62,0.0400390625,0.8818359375,0.0771484375,-0.6707317073170732,1.5548780487804879,-1.8902439024390245,-0.016,-0.005,0.976,0.88,-0.28,0.27,0.65,-0.85,1.75,1265,1265,1500,1500,1.86,0,3,1,1
1,55948814,1008,22,1763,86,-31,74,-62,0.0107421875,0.86083984375,0.0419921875,-0.9451219512195123,2.25609756097561,-1.8902439024390245,-0.02,-0.006,0.958,1.21,0.0,1.02,0.65,-0.85,1.75,1265,1265,1500,1500,2.11,0,3,1,1
2,55949822,1008,-80,1991,-55,-36,90,-53,-0.0390625,0.97216796875,-0.02685546875,-1.0975609756097562,2.7439024390243905,-1.6158536585365855,-0.013,0.0,0.96,1.33,0.23,1.68,0.64,-0.85,1.75,1265,1265,1500,1500,1.78,0,3,1,1
3,55950829,1007,-141,2229,-20,-46,97,-32,-0.06884765625,1.08837890625,-0.009765625,-1.402439024390244,2.957317073170732,-0.9756097560975611,-0.009,0.011,0.98,1.21,0.49,2.19,0.64,-0.85,1.76,1265,1265,1500,1500,1.92,0,3,1,1
4,55951837,1008,-45,2159,181,-58,83,-6,-0.02197265625,1.05419921875,0.08837890625,-1.7682926829268295,2.530487804878049,-0.1829268292682927,-0.022,0.013,0.992,0.85,0.78,2.39,0.64,-0.85,1.76,1265,1265,1500,1500,2.54,0,3,1,1
5,55952845,1008,136,1958,40,-44,52,14,0.06640625,0.9560546875,0.01953125,-1.3414634146341464,1.5853658536585367,0.426829268292683,-0.021,0.0,0.986,0.42,0.83,2.21,0.64,-0.84,1.76,1265,1265,1500,1500,2.21,0,3,1,1
6,55953853,1008,180,1990,-191,-9,8,34,0.087890625,0.9716796875,-0.09326171875,-0.27439024390243905,0.24390243902439027,1.0365853658536586,-0.003,-0.013,0.984,-0.07,0.51,1.64,0.64,-0.84,1.76,1265,1265,1500,1500,1.05,0,3,1,1
7,55954862,1009,49,2195,-178,16,-34,54,0.02392578125,1.07177734375,-0.0869140625,0.48780487804878053,-1.0365853658536586,1.6463414634146343,0.01,-0.015,0.998,-0.6,0.05,0.83,0.64,-0.84,1.76,1265,1265,1500,1500,0.31,0,3,1,1
8,55955868,1006,-66,2256,-189,24,-60,69,-0.0322265625,1.1015625,-0.09228515625,0.7317073170731708,-1.829268292682927,2.103658536585366,0.023,-0.007,1.014,-1.11,-0.34,0.02,0.64,-0.84,1.76,1265,1265,1500,1500,0.53,0,3,1,1
9,55956876,1008,5,2128,-237,35,-81,80,0.00244140625,1.0390625,-0.11572265625,1.0670731707317074,-2.4695121951219514,2.439024390243903,0.038,-0.006,1.018,-1.56,-0.71,-0.71,0.64,-0.85,1.76,1265,1265,1500,1500,1.33,0,3,1,1
10,55957884,1008,179,2013,-158,54,-89,85,0.08740234375,0.98291015625,-0.0771484375,1.6463414634146343,-2.713414634146342,2.5914634146341466,0.044,-0.019,1.012,-1.91,-1.16,-1.29,0.65,-0.85,1.76,1265,1265,1500,1500,1.73,0,3,1,1
11,55958892,1008,300,2016,-84,55,-98,80,0.146484375,0.984375,-0.041015625,1.676829268292683,-2.987804878048781,2.439024390243903,0.043,-0.039,1.008,-2.09,-1.46,-1.77,0.65,-0.85,1.76,1265,1265,1500,1500,2.29,0,3,1,1
12,55959900,1008,254,2033,-167,43,-118,64,0.1240234375,0.99267578125,-0.08154296875,1.3109756097560976,-3.5975609756097566,1.9512195121951221,0.049,-0.053,1.005,-2.05,-1.54,-2.29,0.65,-0.85,1.76,1265,1265,1500,1500,3.09,0,3,1,1
13,55960909,1009,-3,2009,-259,29,-112,35,-0.00146484375,0.98095703125,-0.12646484375,0.8841463414634148,-3.414634146341464,1.0670731707317074,0.062,-0.044,1.001,-1.73,-1.45,-2.58,0.65,-0.86,1.75,1265,1265,1500,1500,3.28,0,3,1,1
14,55961917,1008,-245,2026,-110,10,-75,-2,-0.11962890625,0.9892578125,-0.0537109375,0.30487804878048785,-2.2865853658536586,-0.06097560975609757,0.06,-0.018,0.999,-1.13,-1.2,-2.39,0.66,-0.86,1.75,1265,1265,1500,1500,2.64,0,3,1,1
15,55962925,1008,-246,2069,237,-14,-35,-32,-0.1201171875,1.01025390625,0.11572265625,-0.426829268292683,-1.0670731707317074,-0.9756097560975611,0.032,0.003,1.001,-0.43,-0.78,-1.86,0.66,-0.86,1.75,1265,1265,1500,1500,1.33,0,3,1,1
16,55963934,1009,-94,2043,318,-28,0,-48,-0.0458984375,0.99755859375,0.1552734375,-0.853658536585366,0.0,-1.4634146341463417,0.002,0.01,1.0,0.19,-0.37,-1.15,0.66,-0.86,1.75,1265,1265,1500,1500,1.42,0,3,1,1
17,55964940,1006,106,1901,42,-14,23,-61,0.0517578125,0.92822265625,0.0205078125,-0.426829268292683,0.701219512195122,-1.8597560975609757,0.0,0.0,0.989,0.74,-0.23,-0.44,0.65,-0.86,1.75,1265,1265,1500,1500,1.13,0,3,1,1
18,55965948,1008,219,1765,-3,-10,58,-69,0.10693359375,0.86181640625,-0.00146484375,-0.30487804878048785,1.7682926829268295,-2.103658536585366,0.0,-0.016,0.969,1.19,-0.18,0.38,0.65,-0.86,1.75,1265,1265,1500,1500,0.94,0,3,1,1
19,55966956,1008,44,1813,201,-53,117,-70,0.021484375,0.88525390625,0.09814453125,-1.6158536585365855,3.5670731707317076,-2.1341463414634148,-0.015,-0.017,0.955,1.49,0.28,1.53,0.65,-0.86,1.75,1265,1265,1500,1500,1.85,0,3,1,1
20,55967964,1008,-250,2008,109,-76,156,-71,-0.1220703125,0.98046875,0.05322265625,-2.3170731707317076,4.75609756097561,-2.164634146341464,-0.021,0.004,0.959,1.71,0.83,2.69,0.65,-0.86,1.75,1265,1265,1500,1500,2.36,0,3,1,1
21,55968973,1009,-355,2174,-82,-52,149,-65,-0.17333984375,1.0615234375,-0.0400390625,-1.5853658536585367,4.5426829268292686,-1.981707317073171,-0.012,0.031,0.975,1.79,0.95,3.4,0.65,-0.85,1.76,1265,1265,1500,1500,2.95,0,3,1,1
22,55969981,1008,-220,2138,-21,-28,107,-37,-0.107421875,1.0439453125,-0.01025390625,-0.853658536585366,3.26219512195122,-1.128048780487805,-0.008,0.043,0.986,1.56,0.78,3.44,0.64,-0.85,1.76,1265,1265,1500,1500,3.45,0,3,1,1
23,55970989,1008,12,1993,-8,-33,44,8,0.005859375,0.97314453125,-0.00390625,-1.0060975609756098,1.3414634146341464,0.24390243902439027,-0.006,0.035,0.984,0.95,0.72,2.82,0.64,-0.85,1.76,1265,1265,1500,1500,2.99,0,3,1,1
24,55971998,1009,176,2007,-125,-44,-17,41,0.0859375,0.97998046875,-0.06103515625,-1.3414634146341464,-0.5182926829268293,1.25,0.004,0.016,0.983,0.2,0.8,1.79,0.64,-0.85,1.76,1265,1265,1500,1500,1.71,0,3,1,1
25,55973006,1008,276,2126,-172,-25,-53,56,0.134765625,1.0380859375,-0.083984375,-0.7621951219512195,-1.6158536585365855,1.707317073170732,0.016,-0.007,0.992,-0.43,0.65,0.74,0.64,-0.85,1.76,1265,1265,1500,1500,0.23,0,3,1,1
26,55974014,1008,289,2220,-167,10,-63,72,0.14111328125,1.083984375,-0.08154296875,0.30487804878048785,-1.9207317073170733,2.1951219512195124,0.027,-0.028,1.006,-1.03,0.2,-0.06,0.64,-0.85,1.76,1265,1265,1500,1500,1.2,0,3,1,1
27,55975023,1009,172,2291,-128,41,-64,91,0.083984375,1.11865234375,-0.0625,1.25,-1.9512195121951221,2.774390243902439,0.032,-0.037,1.024,-1.62,-0.41,-0.6,0.64,-0.85,1.76,1265,1265,1500,1500,1.74,0,3,1,1
28,55976030,1007,66,2234,-202,60,-90,92,0.0322265625,1.0908203125,-0.0986328125,1.829268292682927,-2.7439024390243905,2.804878048780488,0.043,-0.036,1.035,-2.02,-1.02,-1.23,0.65,-0.85,1.76,1265,1265,1500,1500,2.06,0,3,1,1
29,55977038,1008,112,2077,-291,53,-138,67,0.0546875,1.01416015625,-0.14208984375,1.6158536585365855,-4.207317073170732,2.0426829268292686,0.058,-0.039,1.031,-2.03,-1.35,-2.14,0.65,-0.85,1.76,1265,1265,1500,1500,2.86,0,3,1,1
30,55978045,1007,229,2000,-76,8,-161,51,0.11181640625,0.9765625,-0.037109375,0.24390243902439027,-4.908536585365854,1.5548780487804879,0.055,-0.05,1.023,-1.88,-1.11,-2.98,0.65,-0.86,1.76,1265,1265,1500,1500,3.13,0,3,1,1
31,55979053,1008,142,1941,76,-30,-135,52,0.0693359375,0.94775390625,0.037109375,-0.9146341463414634,-4.115853658536586,1.5853658536585367,0.04,-0.053,1.011,-1.79,-0.56,-3.27,0.66,-0.86,1.75,1265,1265,1500,1500,2.79,0,3,1,1
32,55980061,1008,-172,1900,-49,-19,-101,28,-0.083984375,0.927734375,-0.02392578125,-0.5792682926829269,-3.079268292682927,0.853658536585366,0.038,-0.032,0.997,-1.48,-0.31,-3.12,0.66,-0.86,1.75,1265,1265,1500,1500,1.77,0,3,1,1
33,55981070,1009,-299,1984,-35,2,-76,-21,-0.14599609375,0.96875,-0.01708984375,0.06097560975609757,-2.3170731707317076,-0.6402439024390244,0.034,-0.003,0.993,-0.78,-0.36,-2.76,0.66,-0.86,1.75,1265,1265,1500,1500,1.22,0,3,1,1
34,55982077,1007,-144,2004,176,-19,-38,-55,-0.0703125,0.978515625,0.0859375,-0.5792682926829269,-1.1585365853658538,-1.676829268292683,0.015,0.007,0.99,0.03,-0.17,-2.14,0.66,-0.86,1.75,1265,1265,1500,1500,1.12,0,3,1,1
35,55983085,1008,25,1908,226,-56,14,-68,0.01220703125,0.931640625,0.1103515625,-1.707317073170732,0.426829268292683,-2.073170731707317,-0.004,0.004,0.981,0.7,0.31,-1.19,0.66,-0.86,1.75,1265,1265,1500,1500,1.46,0,3,1,1
36,55984092,1007,174,1837,116,-62,74,-71,0.0849609375,0.89697265625,0.056640625,-1.8902439024390245,2.25609756097561,-2.164634146341464,-0.012,-0.009,0.968,1.18,0.71,0.04,0.66,-0.86,1.75,1265,1265,1500,1500,1.61,0,3,1,1
37,55985100,1008,148,1808,122,-52,127,-64,0.072265625,0.8828125,0.0595703125,-1.5853658536585367,3.8719512195121957,-1.9512195121951221,-0.02,-0.019,0.954,1.43,0.87,1.41,0.65,-0.86,1.75,1265,1265,1500,1500,2.13,0,3,1,1
38,55986108,1008,-129,1902,120,-47,158,-61,-0.06298828125,0.9287109375,0.05859375,-1.4329268292682928,4.817073170731708,-1.8597560975609757,-0.026,-0.006,0.95,1.57,0.92,2.63,0.65,-0.85,1.75,1265,1265,1500,1500,2.45,0,3,1,1
39,55987116,1008,-334,2127,-92,-32,160,-60,-0.1630859375,1.03857421875,-0.044921875,-0.9756097560975611,4.878048780487806,-1.829268292682927,-0.014,0.02,0.964,1.65,0.81,3.47,0.65,-0.85,1.75,1265,1265,1500,1500,2.56,0,3,1,1
40,55988124,1008,-358,2255,-236,-21,130,-52,-0.1748046875,1.10107421875,-0.115234375,-0.6402439024390244,3.963414634146342,-1.5853658536585367,0.005,0.044,0.986,1.62,0.62,3.72,0.65,-0.85,1.76,1265,1265,1500,1500,3.31,0,3,1,1
41,55989133,1009,-223,2111,-78,-34,77,-30,-0.10888671875,1.03076171875,-0.0380859375,-1.0365853658536586,2.347560975609756,-0.9146341463414634,0.01,0.055,0.993,1.37,0.62,3.35,0.64,-0.85,1.76,1265,1265,1500,1500,3.83,0,3,1,1
42,55990141,1008,51,1945,0,-38,29,17,0.02490234375,0.94970703125,0.0,-1.1585365853658538,0.8841463414634148,0.5182926829268293,0.009,0.042,0.986,0.73,0.67,2.61,0.64,-0.85,1.76,1265,1265,1500,1500,3.13,0,3,1,1
43,55991148,1007,262,2056,-149,-9,-13,61,0.1279296875,1.00390625,-0.07275390625,-0.27439024390243905,-0.39634146341463417,1.8597560975609757,0.019,0.015,0.989,-0.13,0.4,1.69,0.64,-0.85,1.76,1265,1265,1500,1500,1.56,0,3,1,1
44,55992156,1008,415,2209,-181,24,-63,75,0.20263671875,1.07861328125,-0.08837890625,0.7317073170731708,-1.9207317073170733,2.2865853658536586,0.03,-0.019,1.003,-0.86,-0.1,0.57,0.64,-0.85,1.76,1265,1265,1500,1500,0.97,0,3,1,1
45,55993164,1008,479,2231,-80,25,-85,83,0.23388671875,1.08935546875,-0.0390625,0.7621951219512195,-2.5914634146341466,2.530487804878049,0.031,-0.053,1.016,-1.42,-0.45,-0.39,0.64,-0.85,1.76,1265,1265,1500,1500,2.52,0,3,1,1
46,55994173,1009,234,2243,-49,18,-78,93,0.1142578125,1.09521484375,-0.02392578125,0.5487804878048781,-2.378048780487805,2.8353658536585367,0.03,-0.062,1.029,-1.9,-0.61,-0.97,0.65,-0.85,1.76,1265,1265,1500,1500,2.96,0,3,1,1
47,55995181,1008,-29,2166,-164,31,-92,83,-0.01416015625,1.0576171875,-0.080078125,0.9451219512195123,-2.804878048780488,2.530487804878049,0.038,-0.05,1.033,-2.12,-0.86,-1.49,0.65,-0.85,1.76,1265,1265,1500,1500,2.49,0,3,1,1
48,55996189,1008,5,2014,-164,24,-126,56,0.00244140625,0.9833984375,-0.080078125,0.7317073170731708,-3.8414634146341466,1.707317073170732,0.044,-0.043,1.025,-1.99,-0.94,-2.19,0.65,-0.86,1.76,1265,1265,1500,1500,2.4,0,3,1,1
49,55997198,1009,91,1940,53,-12,-134,39,0.04443359375,0.947265625,0.02587890625,-0.3658536585365854,-4.085365853658537,1.1890243902439026,0.033,-0.043,1.013,-1.72,-0.64,-2.74,0.66,-0.86,1.76,1265,1265,1500,1500,2.06,0,3,1,1
50,55998206,1008,15,1925,125,-37,-95,43,0.00732421875,0.93994140625,0.06103515625,-1.128048780487805,-2.8963414634146343,1.3109756097560976,0.018,-0.037,1.001,-1.59,-0.18,-2.7,0.66,-0.86,1.75,1265,1265,1500,1500,1.5,0,3,1,1
51,55999214,1008,-187,1979,70,-38,-57,38,-0.09130859375,0.96630859375,0.0341796875,-1.1585365853658538,-1.7378048780487807,1.1585365853658538,0.01,-0.017,0.996,-1.45,0.13,-2.29,0.66,-0.86,1.75,1265,1265,1500,1500,0.42,0,3,1,1
52,56000223,1009,-301,2069,1,-21,-55,-15,-0.14697265625,1.01025390625,0.00048828125,-0.6402439024390244,-1.676829268292683,-0.4573170731707317,0.008,0.008,0.998,-0.82,0.17,-2.0,0.66,-0.86,1.75,1265,1265,1500,1500,1.23,0,3,1,1
53,56001231,1008,-44,1945,-36,-11,-41,-83,-0.021484375,0.94970703125,-0.017578125,-0.3353658536585366,-1.25,-2.530487804878049,0.009,0.01,0.99,0.29,0.09,-1.66,0.66,-0.86,1.75,1265,1265,1500,1500,1.32,0,3,1,1
54,56002240,1009,324,1691,139,-33,24,-89,0.158203125,0.82568359375,0.06787109375,-1.0060975609756098,0.7317073170731708,-2.713414634146342,-0.002,-0.015,0.964,1.09,0.26,-0.77,0.66,-0.85,1.75,1265,1265,1500,1500,1.03,0,3,1,1
55,56003248,1008,227,1698,228,-57,103,-53,0.11083984375,0.8291015625,0.111328125,-1.7378048780487807,3.1402439024390247,-1.6158536585365855,-0.019,-0.03,0.943,1.26,0.62,0.62,0.66,-0.85,1.75,1265,1265,1500,1500,2.38,0,3,1,1
56,56004256,1008,-191,1949,79,-59,136,-43,-0.09326171875,0.95166015625,0.03857421875,-1.7987804878048783,4.146341463414634,-1.3109756097560976,-0.022,-0.011,0.944,1.27,0.88,1.88,0.66,-0.85,1.75,1265,1265,1500,1500,2.23,0,3,1,1
57,56005265,1009,-371,2153,-42,-39,129,-51,-0.18115234375,1.05126953125,-0.0205078125,-1.1890243902439026,3.932926829268293,-1.5548780487804879,-0.015,0.019,0.961,1.35,0.85,2.65,0.65,-0.85,1.75,1265,1265,1500,1500,2.55,0,3,1,1
58,56006273,1008,-313,2213,-153,3,103,-44,-0.15283203125,1.08056640625,-0.07470703125,0.09146341463414635,3.1402439024390247,-1.3414634146341464,-0.001,0.04,0.98,1.34,0.4,2.9,0.65,-0.85,1.76,1266,1266,1500,1500,3.16,0,3,1,1
59,56007281,1008,-217,2221,-216,16,60,-28,-0.10595703125,1.08447265625,-0.10546875,0.48780487804878053,1.829268292682927,-0.853658536585366,0.015,0.05,0.996,1.17,-0.02,2.63,0.65,-0.85,1.76,1266,1266,1500,1500,3.57,0,3,1,1
60,56008290,1009,12,2156,-153,-17,13,-4,0.005859375,1.052734375,-0.07470703125,-0.5182926829268293,0.39634146341463417,-0.12195121951219513,0.024,0.041,1.005,0.81,0.02,1.97,0.65,-0.85,1.76,1266,1266,1500,1500,3.08,0,3,1,1
61,56009297,1007,314,2016,-187,-29,-17,36,0.1533203125,0.984375,-0.09130859375,-0.8841463414634148,-0.5182926829268293,1.0975609756097562,0.035,0.01,1.002,0.16,0.18,1.22,0.65,-0.85,1.76,1266,1266,1500,1500,1.73,0,3,1,1
62,56010306,1009,412,2058,-196,1,-31,77,0.201171875,1.0048828125,-0.095703125,0.030487804878048783,-0.9451219512195123,2.347560975609756,0.044,-0.022,1.002,-0.68,-0.02,0.58,0.65,-0.85,1.76,1266,1266,1500,1500,1.83,0,3,1,1
63,56011313,1007,329,2216,-20,30,-55,92,0.16064453125,1.08203125,-0.009765625,0.9146341463414634,-1.676829268292683,2.804878048780488,0.039,-0.044,1.015,-1.39,-0.45,-0.08,0.65,-0.85,1.76,1266,1266,1500,1500,2.31,0,3,1,1
64,56012320,1007,222,2212,-7,23,-82,94,0.1083984375,1.080078125,-0.00341796875,0.701219512195122,-2.5,2.8658536585365857,0.033,-0.054,1.025,-1.89,-0.66,-0.8,0.65,-0.85,1.76,1265,1265,1500,1500,2.61,0,3,1,1
65,56013328,1008,54,2149,-36,-9,-104,89,0.0263671875,1.04931640625,-0.017578125,-0.27439024390243905,-3.1707317073170733,2.713414634146342,0.031,-0.05,1.029,-2.17,-0.48,-1.5,0.65,-0.85,1.76,1265,1265,1500,1500,2.31,0,3,1,1
66,56014337,1009,-30,2081,15,-25,-107,65,-0.0146484375,1.01611328125,0.00732421875,-0.7621951219512195,-3.26219512195122,1.981707317073171,0.025,-0.039,1.027,-2.11,-0.19,-2.0,0.66,-0.85,1.76,1265,1265,1500,1500,1.65,0,3,1,1
67,56015344,1007,48,1936,-54,-22,-85,40,0.0234375,0.9453125,-0.0263671875,-0.6707317073170732,-2.5914634146341466,1.2195121951219514,0.025,-0.037,1.014,-1.82,-0.04,-2.11,0.66,-0.85,1.76,1265,1265,1500,1500,1.55,0,3,1,1
68,56016352,1008,-11,1883,77,-27,-58,26,-0.00537109375,0.91943359375,0.03759765625,-0.8231707317073171,-1.7682926829268295,0.7926829268292683,0.015,-0.03,0.999,-1.48,0.11,-1.91,0.66,-0.85,1.75,1266,1266,1500,1500,1.08,0,3,1,1
69,56017360,1008,-145,1976,189,-38,-40,14,-0.07080078125,0.96484375,0.09228515625,-1.1585365853658538,-1.2195121951219514,0.426829268292683,-0.001,-0.014,0.993,-1.13,0.33,-1.59,0.66,-0.85,1.75,1266,1266,1500,1500,0.97,0,3,1,1
70,56018369,1009,-151,2052,-55,-41,-32,5,-0.07373046875,1.001953125,-0.02685546875,-1.25,-0.9756097560975611,0.15243902439024393,0.002,0.0,0.995,-0.81,0.5,-1.29,0.66,-0.85,1.75,1266,1266,1500,1500,0.94,0,3,1,1
71,56019377,1008,-116,2021,-97,-33,-15,-16,-0.056640625,0.98681640625,-0.04736328125,-1.0060975609756098,-0.4573170731707317,-0.48780487804878053,0.009,0.008,0.993,-0.38,0.54,-0.93,0.66,-0.85,1.75,1266,1266,1500,1500,1.19,0,3,1,1
72,56020385,1008,68,1816,35,-11,29,-63,0.033203125,0.88671875,0.01708984375,-0.3353658536585366,0.8841463414634148,-1.9207317073170733,0.005,0.001,0.976,0.37,0.34,-0.23,0.66,-0.85,1.75,1265,1265,1500,1500,0.94,0,3,1,1
73,56021393,1008,287,1648,70,-3,87,-90,0.14013671875,0.8046875,0.0341796875,-0.09146341463414635,2.6524390243902443,-2.7439024390243905,0.0,-0.02,0.949,1.16,0.12,0.81,0.66,-0.85,1.75,1265,1265,1500,1500,1.06,0,3,1,1
74,56022401,1008,64,1873,149,-24,130,-68,0.03125,0.91455078125,0.07275390625,-0.7317073170731708,3.963414634146342,-2.073170731707317,-0.012,-0.022,0.943,1.45,0.19,1.95,0.66,-0.85,1.75,1266,1266,1500,1500,1.73,0,3,1,1
75,56023408,1007,-349,2169,-58,-28,120,-35,-0.17041015625,1.05908203125,-0.0283203125,-0.853658536585366,3.658536585365854,-1.0670731707317074,-0.005,0.008,0.962,1.32,0.28,2.61,0.66,-0.85,1.76,1266,1266,1500,1500,1.66,0,3,1,1
76,56024416,1008,-335,2149,-333,-5,66,-21,-0.16357421875,1.04931640625,-0.16259765625,-0.15243902439024393,2.0121951219512195,-0.6402439024390244,0.02,0.032,0.976,1.08,0.1,2.49,0.66,-0.85,1.76,1266,1266,1500,1500,2.62,0,3,1,1
77,56025425,1009,-13,2105,-131,9,23,-11,-0.00634765625,1.02783203125,-0.06396484375,0.27439024390243905,0.701219512195122,-0.3353658536585366,0.027,0.028,0.984,0.82,-0.15,1.98,0.65,-0.85,1.76,1266,1266,1500,1500,2.45,0,3,1,1
78,56026433,1008,222,2155,-78,22,4,-6,0.1083984375,1.05224609375,-0.0380859375,0.6707317073170732,0.12195121951219513,-0.1829268292682927,0.029,0.006,0.995,0.6,-0.45,1.44,0.65,-0.85,1.76,1266,1266,1500,1500,1.35,0,3,1,1
79,56027440,1007,298,2137,-297,34,-16,0,0.1455078125,1.04345703125,-0.14501953125,1.0365853658536586,-0.48780487804878053,0.0,0.047,-0.017,1.002,0.39,-0.78,0.88,0.65,-0.85,1.76,1266,1266,1500,1500,1.9,0,3,1,1
80,56028445,1005,278,2122,-193,23,-50,32,0.1357421875,1.0361328125,-0.09423828125,0.701219512195122,-1.524390243902439,0.9756097560975611,0.055,-0.036,1.008,-0.06,-0.88,0.16,0.65,-0.85,1.76,1266,1266,1500,1500,2.66,0,3,1,1
81,56029453,1008,167,2131,-9,-7,-87,78,0.08154296875,1.04052734375,-0.00439453125,-0.2134146341463415,-2.6524390243902443,2.378048780487805,0.047,-0.043,1.013,-0.84,-0.65,-0.68,0.66,-0.86,1.76,1266,1266,1500,1500,2.53,0,3,1,1
82,56030462,1009,33,2124,46,-10,-109,101,0.01611328125,1.037109375,0.0224609375,-0.30487804878048785,-3.3231707317073176,3.079268292682927,0.036,-0.038,1.016,-1.6,-0.46,-1.48,0.66,-0.86,1.76,1266,1266,1500,1500,1.92,0,3,1,1
83,56031469,1007,-23,2134,120,11,-106,85,-0.01123046875,1.0419921875,0.05859375,0.3353658536585366,-3.231707317073171,2.5914634146341466,0.021,-0.03,1.02,-1.94,-0.55,-1.98,0.66,-0.86,1.76,1266,1266,1500,1500,1.12,0,3,1,1
84,56032478,1009,4,2080,119,11,-100,41,0.001953125,1.015625,0.05810546875,0.3353658536585366,-3.048780487804878,1.25,0.008,-0.026,1.02,-1.71,-0.61,-2.25,0.66,-0.86,1.76,1266,1266,1500,1500,0.9,0,3,1,1
85,56033486,1008,96,1975,41,-22,-96,10,0.046875,0.96435546875,0.02001953125,-0.6707317073170732,-2.9268292682926833,0.30487804878048785,0.003,-0.029,1.011,-1.25,-0.31,-2.38,0.66,-0.86,1.75,1266,1266,1500,1500,1.19,0,3,1,1
86,56034494,1008,116,1948,53,-66,-59,17,0.056640625,0.951171875,0.02587890625,-2.0121951219512195,-1.7987804878048783,0.5182926829268293,0.0,-0.033,1.001,-1.01,0.33,-2.1,0.67,-0.86,1.75,1266,1266,1500,1500,1.56,0,3,1,1
87,56035502,1008,-75,2002,77,-83,-17,14,-0.03662109375,0.9775390625,0.03759765625,-2.530487804878049,-0.5182926829268293,0.426829268292683,-0.006,-0.022,0.997,-0.82,0.93,-1.48,0.67,-0.86,1.75,1266,1266,1500,1500,1.39,0,3,1,1
88,56036510,1008,-159,2054,3,-56,0,-34,-0.07763671875,1.0029296875,0.00146484375,-1.707317073170732,0.0,-1.0365853658536586,-0.005,-0.006,0.998,-0.2,1.06,-0.9,0.67,-0.85,1.75,1266,1266,1500,1500,1.22,0,3,1,1
89,56037517,1007,14,2003,0,-31,16,-68,0.0068359375,0.97802734375,0.0,-0.9451219512195123,0.48780487804878053,-2.073170731707317,-0.004,-0.006,0.995,0.54,0.89,-0.35,0.67,-0.85,1.75,1266,1266,1500,1500,1.17,0,3,1,1
90,56038523,1006,78,1902,59,-35,37,-58,0.0380859375,0.9287109375,0.02880859375,-1.0670731707317074,1.128048780487805,-1.7682926829268295,-0.008,-0.011,0.984,0.94,0.81,0.23,0.67,-0.85,1.75,1266,1266,1500,1500,1.36,0,3,1,1
91,56039532,1009,-16,1887,19,-53,45,-48,-0.0078125,0.92138671875,0.00927734375,-1.6158536585365855,1.3719512195121952,-1.4634146341463417,-0.008,-0.008,0.974,1.11,0.95,0.7,0.66,-0.85,1.75,1266,1266,1500,1500,1.38,0,3,1,1
92,56040539,1007,-69,1914,-87,-57,49,-56,-0.03369140625,0.9345703125,-0.04248046875,-1.7378048780487807,1.4939024390243905,-1.707317073170732,0.0,-0.001,0.968,1.3,1.08,1.05,0.66,-0.85,1.75,1266,1266,1500,1500,1.05,0,3,1,1
93,56041547,1008,-92,2002,-177,-32,67,-50,-0.044921875,0.9775390625,-0.08642578125,-0.9756097560975611,2.0426829268292686,-1.524390243902439,0.013,0.005,0.969,1.37,0.91,1.47,0.66,-0.85,1.75,1266,1266,1500,1500,0.99,0,3,1,1
94,56042555,1008,-169,2079,-116,-9,72,-22,-0.08251953125,1.01513671875,-0.056640625,-0.27439024390243905,2.1951219512195124,-0.6707317073170732,0.02,0.017,0.977,1.13,0.56,1.8,0.66,-0.85,1.75,1266,1266,1500,1500,1.73,0,3,1,1
95,56043563,1008,-130,1999,-60,-6,32,5,-0.0634765625,0.97607421875,-0.029296875,-0.1829268292682927,0.9756097560975611,0.15243902439024393,0.021,0.024,0.976,0.69,0.3,1.61,0.66,-0.85,1.76,1266,1266,1500,1500,2.16,0,3,1,1
96,56044571,1008,119,2056,-251,-9,-37,27,0.05810546875,1.00390625,-0.12255859375,-0.27439024390243905,-1.128048780487805,0.8231707317073171,0.037,0.011,0.981,0.17,0.16,0.78,0.66,-0.85,1.76,1266,1266,1500,1500,1.9,0,3,1,1
97,56045580,1009,298,2275,-326,7,-83,48,0.1455078125,1.11083984375,-0.1591796875,0.2134146341463415,-2.530487804878049,1.4634146341463417,0.056,-0.013,1.001,-0.37,-0.09,-0.23,0.66,-0.85,1.76,1266,1266,1500,1500,2.39,0,3,1,1
98,56046587,1007,268,2240,-101,26,-89,43,0.130859375,1.09375,-0.04931640625,0.7926829268292683,-2.713414634146342,1.3109756097560976,0.055,-0.031,1.016,-0.69,-0.45,-0.97,0.66,-0.85,1.75,1266,1266,1500,1500,2.54,0,3,1,1
99,56047595,1008,202,2062,16,14,-85,20,0.0986328125,1.0068359375,0.0078125,0.426829268292683,-2.5914634146341466,0.6097560975609757,0.045,-0.042,1.014,-0.67,-0.58,-1.43,0.66,-0.85,1.75,1266,1266,1500,1500,2.43,0,3,1,1
100,56048603,1008,158,2052,0,-2,-81,24,0.0771484375,1.001953125,0.0,-0.06097560975609757,-2.4695121951219514,0.7317073170731708,0.038,-0.047,1.012,-0.7,-0.49,-1.69,0.66,-0.85,1.75,1266,1266,1500,1500,2.43,0,3,1,1
101,56049609,1006,-38,2084,113,-2,-63,48,-0.0185546875,1.017578125,0.05517578125,-0.06097560975609757,-1.9207317073170733,1.4634146341463417,0.023,-0.037,1.013,-0.96,-0.44,-1.68,0.66,-0.85,1.75,1266,1266,1500,1500,1.52,0,3,1,1
102,56050617,1008,-210,2056,167,-3,-46,39,-0.1025390625,1.00390625,0.08154296875,-0.09146341463414635,-1.402439024390244,1.1890243902439026,0.006,-0.015,1.012,-1.04,-0.39,-1.5,0.66,-0.85,1.75,1266,1266,1500,1500,0.5,0,3,1,1
103,56051625,1008,-63,2042,49,-29,-52,-5,-0.03076171875,0.9970703125,0.02392578125,-0.8841463414634148,-1.5853658536585367,-0.15243902439024393,0.001,-0.007,1.009,-0.65,-0.09,-1.44,0.67,-0.85,1.75,1266,1266,1500,1500,0.77,0,3,1,1
104,56052634,1009,109,1971,-22,-47,-34,-42,0.05322265625,0.96240234375,-0.0107421875,-1.4329268292682928,-1.0365853658536586,-1.2804878048780488,0.003,-0.015,1.002,-0.01,0.28,-1.21,0.67,-0.85,1.75,1265,1265,1500,1500,0.69,0,3,1,1
105,56053642,1008,37,1904,50,-41,32,-60,0.01806640625,0.9296875,0.0244140625,-1.25,0.9756097560975611,-1.829268292682927,-0.001,-0.015,0.99,0.59,0.47,-0.39,0.66,-0.85,1.75,1265,1265,1500,1500,0.94,0,3,1,1
106,56054650,1008,-39,1994,171,-58,70,-66,-0.01904296875,0.9736328125,0.08349609375,-1.7682926829268295,2.1341463414634148,-2.0121951219512195,-0.014,-0.01,0.987,1.06,0.77,0.53,0.66,-0.85,1.75,1265,1265,1500,1500,1.67,0,3,1,1
107,56055656,1006,26,2043,135,-85,60,-60,0.0126953125,0.99755859375,0.06591796875,-2.5914634146341466,1.829268292682927,-1.829268292682927,-0.022,-0.01,0.989,1.31,1.25,1.05,0.66,-0.85,1.75,1265,1265,1500,1500,2.14,0,3,1,1
108,56056665,1009,47,1950,-36,-79,62,-45,0.02294921875,0.9521484375,-0.017578125,-2.408536585365854,1.8902439024390245,-1.3719512195121952,-0.016,-0.012,0.983,1.32,1.5,1.42,0.66,-0.84,1.75,1266,1266,1500,1500,1.78,0,3,1,1
109,56057673,1008,-21,1949,-48,-45,89,-33,-0.01025390625,0.95166015625,-0.0234375,-1.3719512195121952,2.713414634146342,-1.0060975609756098,-0.009,-0.008,0.978,1.21,1.32,1.94,0.66,-0.84,1.75,1266,1266,1500,1500,1.42,0,3,1,1
110,56058681,1008,-67,2041,6,-42,85,-28,-0.03271484375,0.99658203125,0.0029296875,-1.2804878048780488,2.5914634146341466,-0.853658536585366,-0.008,-0.002,0.981,1.08,1.18,2.24,0.66,-0.84,1.75,1265,1265,1500,1500,1.45,0,3,1,1
111,56059689,1008,-41,2068,-123,-57,40,-16,-0.02001953125,1.009765625,-0.06005859375,-1.7378048780487807,1.2195121951219514,-0.48780487804878053,0.002,0.001,0.985,0.87,1.23,1.98,0.66,-0.84,1.75,1265,1265,1500,1500,1.02,0,3,1,1
112,56060696,1007,47,2063,-249,-40,-5,9,0.02294921875,1.00732421875,-0.12158203125,-1.2195121951219514,-0.15243902439024393,0.27439024390243905,0.021,-0.002,0.989,0.48,1.09,1.36,0.66,-0.84,1.76,1265,1265,1500,1500,0.63,0,3,1,1
113,56061704,1008,125,2033,-188,1,-43,31,0.06103515625,0.99267578125,-0.091796875,0.030487804878048783,-1.3109756097560976,0.9451219512195123,0.032,-0.011,0.989,0.0,0.58,0.55,0.66,-0.84,1.76,1265,1265,1500,1500,1.03,0,3,1,1
114,56062712,1008,198,2019,-60,8,-75,52,0.0966796875,0.98583984375,-0.029296875,0.24390243902439027,-2.2865853658536586,1.5853658536585367,0.031,-0.025,0.989,-0.53,0.17,-0.3,0.66,-0.84,1.76,1265,1265,1500,1500,1.28,0,3,1,1
115,56063720,1008,154,2147,-72,-18,-85,83,0.0751953125,1.04833984375,-0.03515625,-0.5487804878048781,-2.5914634146341466,2.530487804878049,0.032,-0.033,0.998,-1.21,0.17,-0.98,0.66,-0.84,1.76,1265,1265,1500,1500,1.6,0,3,1,1
116,56064729,1009,-76,2235,-226,10,-94,82,-0.037109375,1.09130859375,-0.1103515625,0.30487804878048785,-2.8658536585365857,2.5,0.044,-0.022,1.013,-1.64,-0.12,-1.52,0.66,-0.84,1.75,1265,1265,1500,1500,1.78,0,3,1,1
117,56065737,1008,-121,2114,-172,60,-125,27,-0.05908203125,1.0322265625,-0.083984375,1.829268292682927,-3.810975609756098,0.8231707317073171,0.05,-0.009,1.016,-1.38,-0.82,-2.2,0.66,-0.84,1.75,1265,1265,1500,1500,2.03,0,3,1,1
118,56066745,1008,98,1994,114,39,-144,-11,0.0478515625,0.9736328125,0.0556640625,1.1890243902439026,-4.390243902439025,-0.3353658536585366,0.034,-0.015,1.009,-0.81,-1.07,-2.84,0.66,-0.84,1.75,1265,1265,1500,1500,1.1,0,3,1,1
119,56067754,1009,125,1969,128,-14,-116,-4,0.06103515625,0.96142578125,0.0625,-0.426829268292683,-3.536585365853659,-0.12195121951219513,0.018,-0.022,1.001,-0.5,-0.7,-2.99,0.66,-0.84,1.75,1265,1265,1500,1500,0.66,0,3,1,1
120,56068761,1007,-103,1986,-67,-22,-59,-4,-0.05029296875,0.9697265625,-0.03271484375,-0.6707317073170732,-1.7987804878048783,-0.12195121951219513,0.02,-0.011,0.996,-0.3,-0.37,-2.5,0.66,-0.84,1.74,1265,1265,1500,1500,0.35,0,3,1,1
121,56069769,1008,-171,2036,22,-6,-23,-36,-0.08349609375,0.994140625,0.0107421875,-0.1829268292682927,-0.701219512195122,-1.0975609756097562,0.015,0.003,0.996,0.15,-0.32,-1.81,0.66,-0.84,1.74,1265,1265,1500,1500,0.9,0,3,1,1
122,56070776,1007,33,2003,218,-22,1,-64,0.01611328125,0.97802734375,0.1064453125,-0.6707317073170732,0.030487804878048783,-1.9512195121951221,-0.003,0.0,0.993,0.75,-0.12,-1.11,0.66,-0.84,1.74,1265,1265,1500,1500,1.27,0,3,1,1
123,56071783,1007,149,1865,180,-49,43,-71,0.07275390625,0.91064453125,0.087890625,-1.4939024390243905,1.3109756097560976,-2.164634146341464,-0.016,-0.01,0.98,1.21,0.28,-0.21,0.66,-0.84,1.74,1265,1265,1500,1500,1.83,0,3,1,1
124,56072791,1008,40,1806,19,-48,78,-79,0.01953125,0.8818359375,0.00927734375,-1.4634146341463417,2.378048780487805,-2.408536585365854,-0.015,-0.012,0.964,1.6,0.54,0.74,0.66,-0.84,1.74,1265,1265,1500,1500,1.78,0,3,1,1
125,56073799,1008,-114,1957,-67,-46,88,-84,-0.0556640625,0.95556640625,-0.03271484375,-1.402439024390244,2.682926829268293,-2.5609756097560976,-0.007,-0.001,0.963,1.91,0.7,1.47,0.66,-0.84,1.74,1265,1265,1500,1500,1.44,0,3,1,1
126,56074807,1008,-188,2167,39,-65,104,-58,-0.091796875,1.05810546875,0.01904296875,-1.981707317073171,3.1707317073170733,-1.7682926829268295,-0.009,0.013,0.978,1.86,0.99,2.13,0.66,-0.84,1.74,1265,1265,1500,1500,2.02,0,3,1,1
127,56075814,1007,-114,2179,131,-68,114,-19,-0.0556640625,1.06396484375,0.06396484375,-2.073170731707317,3.4756097560975614,-0.5792682926829269,-0.018,0.02,0.991,1.42,1.22,2.66,0.65,-0.84,1.75,1265,1265,1500,1500,2.63,0,3,1,1
128,56076822,1008,97,2027,12,-48,74,-1,0.04736328125,0.98974609375,0.005859375,-1.4634146341463417,2.25609756097561,-0.030487804878048783,-0.016,0.009,0.991,0.95,1.17,2.61,0.65,-0.83,1.75,1265,1265,1500,1500,2.15,0,3,1,1
129,56077830,1008,302,1969,-90,-38,14,15,0.1474609375,0.96142578125,-0.0439453125,-1.1585365853658538,0.426829268292683,0.4573170731707317,-0.006,-0.015,0.986,0.47,1.03,1.97,0.65,-0.83,1.75,1265,1265,1500,1500,1.25,0,3,1,1
130,56078838,1008,253,2113,-166,-21,-11,45,0.12353515625,1.03173828125,-0.0810546875,-0.6402439024390244,-0.3353658536585366,1.3719512195121952,0.007,-0.032,0.993,-0.15,0.77,1.28,0.65,-0.83,1.75,1266,1266,1500,1500,1.29,0,3,1,1
131,56079846,1008,-17,2245,-265,17,-27,59,-0.00830078125,1.09619140625,-0.12939453125,0.5182926829268293,-0.8231707317073171,1.7987804878048783,0.026,-0.026,1.01,-0.7,0.2,0.66,0.65,-0.83,1.75,1266,1266,1500,1500,1.06,0,3,1,1
132,56080855,1009,-66,2215,-251,35,-56,53,-0.0322265625,1.08154296875,-0.12255859375,1.0670731707317074,-1.707317073170732,1.6158536585365855,0.041,-0.016,1.021,-1.01,-0.35,-0.03,0.65,-0.83,1.75,1266,1266,1500,1500,1.53,0,3,1,1
133,56081862,1007,113,2167,-129,23,-80,58,0.05517578125,1.05810546875,-0.06298828125,0.701219512195122,-2.439024390243903,1.7682926829268295,0.045,-0.022,1.027,-1.27,-0.59,-0.75,0.66,-0.83,1.75,1266,1266,1500,1500,1.79,0,3,1,1
134,56082870,1008,141,2109,16,16,-103,61,0.06884765625,1.02978515625,0.0078125,0.48780487804878053,-3.1402439024390247,1.8597560975609757,0.036,-0.03,1.027,-1.47,-0.69,-1.46,0.66,-0.84,1.75,1266,1266,1500,1500,1.58,0,3,1,1
135,56083878,1008,95,1963,-56,34,-115,39,0.04638671875,0.95849609375,-0.02734375,1.0365853658536586,-3.50609756097561,1.1890243902439026,0.035,-0.032,1.016,-1.38,-0.94,-2.06,0.66,-0.84,1.75,1266,1266,1500,1500,1.64,0,3,1,1
136,56084887,1009,30,1868,-223,33,-116,10,0.0146484375,0.912109375,-0.10888671875,1.0060975609756098,-3.536585365853659,0.30487804878048785,0.046,-0.029,1.0,-1.03,-1.09,-2.46,0.66,-0.84,1.75,1266,1266,1500,1500,2.12,0,3,1,1
137,56085895,1008,-141,1907,-124,11,-98,-12,-0.06884765625,0.93115234375,-0.060546875,0.3353658536585366,-2.987804878048781,-0.3658536585365854,0.049,-0.014,0.989,-0.57,-0.97,-2.55,0.66,-0.84,1.74,1266,1266,1500,1500,2.0,0,3,1,1
138,56086903,1008,-222,2008,108,-12,-40,-29,-0.1083984375,0.98046875,0.052734375,-0.3658536585365854,-1.2195121951219514,-0.8841463414634148,0.032,0.005,0.987,-0.09,-0.65,-2.02,0.66,-0.84,1.74,1265,1265,1500,1500,1.43,0,3,1,1
139,56087910,1007,-120,2060,203,-36,3,-47,-0.05859375,1.005859375,0.09912109375,-1.0975609756097562,0.09146341463414635,-1.4329268292682928,0.011,0.013,0.99,0.41,-0.2,-1.22,0.66,-0.84,1.74,1265,1265,1500,1500,1.46,0,3,1,1
140,56088919,1009,100,1941,117,-35,4,-73,0.048828125,0.94775390625,0.05712890625,-1.0670731707317074,0.12195121951219513,-2.225609756097561,0.001,0.003,0.983,1.01,0.09,-0.68,0.66,-0.84,1.74,1265,1265,1500,1500,1.18,0,3,1,1
141,56089927,1008,257,1773,32,-20,31,-81,0.12548828125,0.86572265625,0.015625,-0.6097560975609757,0.9451219512195123,-2.4695121951219514,-0.001,-0.016,0.965,1.49,0.13,-0.05,0.66,-0.84,1.74,1265,1265,1500,1500,0.99,0,3,1,1
142,56090933,1006,65,1774,117,-30,82,-68,0.03173828125,0.8662109375,0.05712890625,-0.9146341463414634,2.5,-2.073170731707317,-0.01,-0.019,0.949,1.67,0.26,0.88,0.66,-0.84,1.74,1265,1265,1500,1500,1.55,0,3,1,1
143,56091941,1008,-306,1956,140,-54,95,-67,-0.1494140625,0.955078125,0.068359375,-1.6463414634146343,2.8963414634146343,-2.0426829268292686,-0.019,0.007,0.95,1.79,0.59,1.64,0.65,-0.84,1.74,1265,1265,1500,1500,2.31,0,3,1,1
144,56092949,1008,-391,2175,-47,-64,102,-65,-0.19091796875,1.06201171875,-0.02294921875,-1.9512195121951221,3.1097560975609757,-1.981707317073171,-0.012,0.036,0.968,1.84,0.91,2.22,0.65,-0.84,1.75,1266,1266,1500,1500,3.25,0,3,1,1
145,56093957,1008,-199,2248,-57,-48,111,-37,-0.09716796875,1.09765625,-0.02783203125,-1.4634146341463417,3.3841463414634148,-1.128048780487805,-0.006,0.046,0.988,1.6,0.96,2.69,0.65,-0.84,1.75,1265,1265,1500,1500,3.55,0,3,1,1
146,56094966,1009,47,2130,86,-20,73,3,0.02294921875,1.0400390625,0.0419921875,-0.6097560975609757,2.225609756097561,0.09146341463414635,-0.012,0.035,0.996,1.02,0.71,2.62,0.64,-0.83,1.75,1265,1265,1500,1500,3.08,0,3,1,1
147,56095974,1008,280,2014,-32,-9,4,30,0.13671875,0.9833984375,-0.015625,-0.27439024390243905,0.12195121951219513,0.9146341463414634,-0.007,0.008,0.994,0.37,0.43,1.87,0.64,-0.83,1.75,1265,1265,1500,1500,1.69,0,3,1,1
148,56096982,1008,439,2071,-264,-4,-44,48,0.21435546875,1.01123046875,-0.12890625,-0.12195121951219513,-1.3414634146341464,1.4634146341463417,0.013,-0.027,0.997,-0.24,0.19,0.88,0.64,-0.83,1.75,1265,1265,1500,1500,0.91,0,3,1,1
149,56097988,1006,373,2200,-284,12,-59,67,0.18212890625,1.07421875,-0.138671875,0.3658536585365854,-1.7987804878048783,2.0426829268292686,0.033,-0.051,1.009,-0.85,-0.12,0.07,0.65,-0.83,1.75,1265,1265,1500,1500,2.53,0,3,1,1
150,56098996,1008,86,2263,-138,27,-62,75,0.0419921875,1.10498046875,-0.0673828125,0.8231707317073171,-1.8902439024390245,2.2865853658536586,0.039,-0.05,1.024,-1.34,-0.48,-0.49,0.65,-0.83,1.75,1265,1265,1500,1500,2.54,0,3,1,1
151,56100004,1008,-91,2259,-141,32,-78,67,-0.04443359375,1.10302734375,-0.06884765625,0.9756097560975611,-2.378048780487805,2.0426829268292686,0.043,-0.035,1.037,-1.58,-0.78,-1.03,0.65,-0.84,1.75,1266,1266,1500,1500,2.04,0,3,1,1
152,56101012,1008,7,2166,-244,41,-121,56,0.00341796875,1.0576171875,-0.119140625,1.25,-3.689024390243903,1.707317073170732,0.055,-0.03,1.04,-1.63,-1.07,-1.83,0.65,-0.84,1.75,1266,1266,1500,1500,2.44,0,3,1,1
153,56102021,1009,106,1999,-83,33,-168,48,0.0517578125,0.97607421875,-0.04052734375,1.0060975609756098,-5.121951219512195,1.4634146341463417,0.053,-0.033,1.03,-1.58,-1.18,-2.84,0.66,-0.84,1.75,1266,1266,1500,1500,2.44,0,3,1,1
154,56103029,1008,30,1868,79,-15,-174,39,0.0146484375,0.912109375,0.03857421875,-0.4573170731707317,-5.3048780487804885,1.1890243902439026,0.038,-0.03,1.011,-1.45,-0.76,-3.58,0.66,-0.84,1.74,1266,1266,1500,1500,1.72,0,3,1,1
155,56104037,1008,-107,1820,-36,-42,-136,19,-0.05224609375,0.888671875,-0.017578125,-1.2804878048780488,-4.146341463414634,0.5792682926829269,0.035,-0.017,0.991,-1.17,-0.21,-3.68,0.66,-0.84,1.74,1266,1266,1500,1500,1.24,0,3,1,1
156,56105046,1009,-171,1868,-39,-16,-64,-17,-0.08349609375,0.912109375,-0.01904296875,-0.48780487804878053,-1.9512195121951221,-0.5182926829268293,0.032,-0.001,0.979,-0.61,-0.11,-3.01,0.66,-0.84,1.74,1266,1266,1500,1500,1.21,0,3,1,1
157,56106054,1008,-86,1984,183,0,11,-52,-0.0419921875,0.96875,0.08935546875,0.0,0.3353658536585366,-1.5853658536585367,0.013,0.005,0.977,0.11,-0.2,-1.8,0.66,-0.84,1.73,1266,1266,1500,1500,0.98,0,3,1,1
158,56107062,1008,53,2010,245,-32,43,-67,0.02587890625,0.9814453125,0.11962890625,-0.9756097560975611,1.3109756097560976,-2.0426829268292686,-0.007,0.0,0.978,0.75,0.05,-0.67,0.66,-0.84,1.73,1266,1266,1500,1500,1.47,0,3,1,1
159,56108070,1008,105,1859,151,-61,53,-72,0.05126953125,0.90771484375,0.07373046875,-1.8597560975609757,1.6158536585365855,-2.1951219512195124,-0.018,-0.007,0.967,1.22,0.52,0.17,0.66,-0.84,1.73,1266,1266,1500,1500,1.93,0,3,1,1
160,56109078,1008,66,1724,88,-60,93,-69,0.0322265625,0.841796875,0.04296875,-1.829268292682927,2.8353658536585367,-2.103658536585366,-0.022,-0.011,0.947,1.51,0.83,1.15,0.65,-0.84,1.74,1266,1266,1500,1500,2.18,0,3,1,1
161,56110087,1009,-104,1822,-15,-45,149,-56,-0.05078125,0.8896484375,-0.00732421875,-1.3719512195121952,4.5426829268292686,-1.707317073170732,-0.017,-0.001,0.938,1.57,0.88,2.37,0.65,-0.84,1.74,1266,1266,1500,1500,1.98,0,3,1,1
162,56111095,1008,-343,2120,-105,-27,168,-44,-0.16748046875,1.03515625,-0.05126953125,-0.8231707317073171,5.121951219512195,-1.3414634146341464,-0.006,0.025,0.953,1.48,0.72,3.38,0.65,-0.84,1.74,1266,1266,1500,1500,2.49,0,3,1,1
163,56112103,1008,-383,2354,-127,-27,144,-40,-0.18701171875,1.1494140625,-0.06201171875,-0.8231707317073171,4.390243902439025,-1.2195121951219514,0.004,0.05,0.984,1.39,0.62,3.8,0.65,-0.84,1.75,1266,1266,1500,1500,3.65,0,3,1,1
164,56113110,1007,-151,2257,-85,-44,84,-18,-0.07373046875,1.10205078125,-0.04150390625,-1.3414634146341464,2.5609756097560976,-0.5487804878048781,0.01,0.054,1.003,1.1,0.73,3.47,0.64,-0.83,1.75,1266,1266,1500,1500,3.76,0,3,1,1
165,56114117,1007,99,2003,-84,-39,16,29,0.04833984375,0.97802734375,-0.041015625,-1.1890243902439026,0.48780487804878053,0.8841463414634148,0.015,0.038,0.999,0.43,0.75,2.56,0.64,-0.83,1.75,1266,1266,1500,1500,2.83,0,3,1,1
166,56115125,1008,308,1985,-241,-1,-28,59,0.150390625,0.96923828125,-0.11767578125,-0.030487804878048783,-0.853658536585366,1.7987804878048783,0.031,0.008,0.994,-0.32,0.38,1.5,0.64,-0.83,1.75,1266,1266,1500,1500,1.48,0,3,1,1
167,56116134,1009,566,2130,-293,33,-55,64,0.2763671875,1.0400390625,-0.14306640625,1.0060975609756098,-1.676829268292683,1.9512195121951221,0.049,-0.036,1.001,-0.87,-0.21,0.52,0.64,-0.84,1.75,1266,1266,1500,1500,2.45,0,3,1,1
168,56117142,1008,532,2242,-47,16,-60,79,0.259765625,1.0947265625,-0.02294921875,0.48780487804878053,-1.829268292682927,2.408536585365854,0.044,-0.072,1.016,-1.39,-0.43,-0.17,0.65,-0.84,1.75,1266,1266,1500,1500,3.81,0,3,1,1
169,56118150,1008,76,2309,71,-11,-73,94,0.037109375,1.12744140625,0.03466796875,-0.3353658536585366,-2.225609756097561,2.8658536585365857,0.032,-0.066,1.034,-1.89,-0.31,-0.77,0.65,-0.84,1.75,1266,1266,1500,1500,3.18,0,3,1,1
170,56119159,1009,-222,2216,-199,10,-129,76,-0.1083984375,1.08203125,-0.09716796875,0.30487804878048785,-3.932926829268293,2.3170731707317076,0.042,-0.038,1.041,-2.04,-0.44,-1.74,0.65,-0.84,1.75,1266,1266,1500,1500,2.11,0,3,1,1
171,56120166,1007,-78,1991,-180,28,-179,45,-0.0380859375,0.97216796875,-0.087890625,0.853658536585366,-5.457317073170732,1.3719512195121952,0.049,-0.026,1.03,-1.82,-0.71,-2.89,0.66,-0.84,1.75,1266,1266,1500,1500,2.09,0,3,1,1
172,56121175,1009,113,1879,179,-3,-171,41,0.05517578125,0.91748046875,0.08740234375,-0.09146341463414635,-5.213414634146342,1.25,0.028,-0.031,1.012,-1.63,-0.57,-3.58,0.66,-0.84,1.74,1266,1266,1500,1500,1.33,0,3,1,1
173,56122183,1008,4,1877,188,-41,-118,52,0.001953125,0.91650390625,0.091796875,-1.25,-3.5975609756097566,1.5853658536585367,0.009,-0.026,0.997,-1.62,-0.09,-3.5,0.66,-0.84,1.74,1266,1266,1500,1500,0.92,0,3,1,1
174,56123191,1008,-233,1900,113,-52,-73,35,-0.11376953125,0.927734375,0.05517578125,-1.5853658536585367,-2.225609756097561,1.0670731707317074,-0.001,-0.004,0.986,-1.44,0.33,-2.98,0.66,-0.84,1.74,1266,1266,1500,1500,1.0,0,3,1,1
175,56124200,1009,-225,1998,88,-34,-51,-13,-0.10986328125,0.9755859375,0.04296875,-1.0365853658536586,-1.5548780487804879,-0.39634146341463417,-0.007,0.013,0.984,-0.83,0.43,-2.42,0.66,-0.84,1.74,1266,1266,1500,1500,1.96,0,3,1,1
176,56125207,1007,18,1983,-53,-8,-27,-63,0.0087890625,0.96826171875,-0.02587890625,-0.24390243902439027,-0.8231707317073171,-1.9207317073170733,-0.002,0.01,0.982,0.07,0.24,-1.79,0.66,-0.84,1.73,1266,1266,1500,1500,1.6,0,3,1,1
177,56126215,1008,244,1761,54,-18,20,-80,0.119140625,0.85986328125,0.0263671875,-0.5487804878048781,0.6097560975609757,-2.439024390243903,-0.006,-0.01,0.962,0.86,0.21,-0.9,0.66,-0.84,1.73,1266,1266,1500,1500,1.21,0,3,1,1
178,56127222,1007,227,1714,201,-59,94,-57,0.11083984375,0.8369140625,0.09814453125,-1.7987804878048783,2.8658536585365857,-1.7378048780487807,-0.02,-0.026,0.942,1.14,0.61,0.44,0.66,-0.84,1.73,1266,1266,1500,1500,2.3,0,3,1,1
179,56128230,1008,-121,1946,42,-73,139,-30,-0.05908203125,0.9501953125,0.0205078125,-2.225609756097561,4.237804878048781,-0.9146341463414634,-0.02,-0.012,0.943,1.06,1.01,1.79,0.66,-0.83,1.73,1266,1266,1500,1500,2.1,0,3,1,1
180,56129239,1009,-423,2138,-100,-37,143,-29,-0.20654296875,1.0439453125,-0.048828125,-1.128048780487805,4.359756097560976,-0.8841463414634148,-0.009,0.022,0.959,0.99,0.92,2.74,0.66,-0.83,1.74,1266,1266,1500,1500,2.43,0,3,1,1
181,56130247,1008,-305,2207,-177,10,135,-31,-0.14892578125,1.07763671875,-0.08642578125,0.30487804878048785,4.115853658536586,-0.9451219512195123,0.005,0.042,0.978,0.97,0.38,3.28,0.65,-0.83,1.74,1266,1266,1500,1500,3.17,0,3,1,1
182,56131255,1008,-80,2245,-289,13,88,-12,-0.0390625,1.09619140625,-0.14111328125,0.39634146341463417,2.682926829268293,-0.3658536585365854,0.027,0.041,0.997,0.76,-0.01,3.17,0.65,-0.83,1.74,1266,1266,1500,1500,3.13,0,3,1,1
183,56132261,1006,32,2161,-218,-22,20,14,0.015625,1.05517578125,-0.1064453125,-0.6707317073170732,0.6097560975609757,0.426829268292683,0.039,0.032,1.006,0.35,0.08,2.4,0.65,-0.83,1.75,1266,1266,1500,1500,2.88,0,3,1,1
184,56133269,1008,250,2007,-121,-37,-14,46,0.1220703125,0.97998046875,-0.05908203125,-1.128048780487805,-0.426829268292683,1.402439024390244,0.042,0.008,1.002,-0.23,0.3,1.54,0.65,-0.83,1.75,1266,1266,1500,1500,1.95,0,3,1,1
185,56134288,1019,443,2065,-100,-18,-36,76,0.21630859375,1.00830078125,-0.048828125,-0.5487804878048781,-1.0975609756097562,2.3170731707317076,0.043,-0.027,1.003,-0.94,0.25,0.74,0.65,-0.83,1.75,1265,1265,1500,1500,1.89,0,3,1,1
186,56135286,998,431,2197,-18,9,-56,89,0.21044921875,1.07275390625,-0.0087890625,0.27439024390243905,-1.707317073170732,2.713414634146342,0.038,-0.056,1.014,-1.54,-0.05,0.01,0.65,-0.83,1.75,1265,1265,1500,1500,2.85,0,3,1,1
187,56136294,1008,258,2199,-108,16,-59,93,0.1259765625,1.07373046875,-0.052734375,0.48780487804878053,-1.7987804878048783,2.8353658536585367,0.04,-0.067,1.023,-1.98,-0.33,-0.5,0.66,-0.84,1.75,1265,1265,1500,1500,3.42,0,3,1,1
188,56137302,1008,-33,2171,-129,-2,-89,83,-0.01611328125,1.06005859375,-0.06298828125,-0.06097560975609757,-2.713414634146342,2.530487804878049,0.044,-0.054,1.029,-2.17,-0.33,-1.15,0.66,-0.84,1.75,1265,1265,1500,1500,2.85,0,3,1,1
189,56138311,1009,-157,2074,126,-29,-130,57,-0.07666015625,1.0126953125,0.0615234375,-0.8841463414634148,-3.963414634146342,1.7378048780487807,0.027,-0.033,1.026,-2.03,-0.05,-2.0,0.66,-0.84,1.74,1265,1265,1500,1500,1.38,0,3,1,1
190,56139319,1008,-52,1916,144,-48,-116,42,-0.025390625,0.935546875,0.0703125,-1.4634146341463417,-3.536585365853659,1.2804878048780488,0.011,-0.024,1.012,-1.78,0.31,-2.43,0.66,-0.84,1.74,1265,1265,1500,1500,0.72,0,3,1,1
191,56140326,1007,-69,1881,114,-45,-81,36,-0.03369140625,0.91845703125,0.0556640625,-1.3719512195121952,-2.4695121951219514,1.0975609756097562,0.001,-0.014,0.997,-1.56,0.53,-2.35,0.67,-0.84,1.74,1265,1265,1500,1500,0.8,0,3,1,1
192,56141335,1009,-126,1956,196,-30,-54,18,-0.0615234375,0.955078125,0.095703125,-0.9146341463414634,-1.6463414634146343,0.5487804878048781,-0.014,-0.002,0.99,-1.23,0.53,-2.03,0.67,-0.83,1.74,1265,1265,1500,1500,1.74,0,3,1,1
193,56142343,1008,-39,2016,-18,-29,-15,4,-0.01904296875,0.984375,-0.0087890625,-0.8841463414634148,-0.4573170731707317,0.12195121951219513,-0.01,0.0,0.989,-0.86,0.51,-1.41,0.67,-0.83,1.74,1265,1265,1500,1500,1.61,0,3,1,1
194,56143351,1008,-14,2016,-148,-36,9,-16,-0.0068359375,0.984375,-0.072265625,-1.0975609756097562,0.27439024390243905,-0.48780487804878053,0.002,0.001,0.988,-0.42,0.58,-0.76,0.67,-0.83,1.74,1265,1265,1500,1500,1.03,0,3,1,1
195,56144359,1008,74,1835,50,-29,20,-65,0.0361328125,0.89599609375,0.0244140625,-0.8841463414634148,0.6097560975609757,-1.981707317073171,-0.001,-0.004,0.974,0.37,0.54,-0.21,0.67,-0.83,1.74,1265,1265,1500,1500,1.02,0,3,1,1
196,56145367,1008,252,1638,122,-30,66,-87,0.123046875,0.7998046875,0.0595703125,-0.9146341463414634,2.0121951219512195,-2.6524390243902443,-0.01,-0.023,0.946,1.13,0.53,0.61,0.67,-0.83,1.74,1265,1265,1500,1500,1.66,0,3,1,1
197,56146375,1008,6,1851,48,-46,108,-52,0.0029296875,0.90380859375,0.0234375,-1.402439024390244,3.2926829268292686,-1.5853658536585367,-0.012,-0.019,0.939,1.27,0.69,1.59,0.67,-0.83,1.74,1265,1265,1500,1500,1.71,0,3,1,1
198,56147383,1008,-447,2191,-104,-29,100,-21,-0.21826171875,1.06982421875,-0.05078125,-0.8841463414634148,3.048780487804878,-0.6402439024390244,-0.002,0.017,0.96,1.05,0.62,2.17,0.66,-0.83,1.74,1265,1265,1500,1500,2.0,0,3,1,1
199,56148392,1009,-396,2197,-326,7,73,-17,-0.193359375,1.07275390625,-0.1591796875,0.2134146341463415,2.225609756097561,-0.5182926829268293,0.022,0.045,0.978,0.86,0.21,2.27,0.66,-0.83,1.74,1265,1265,1500,1500,3.38,0,3,1,1
200,56149399,1007,3,2151,-254,15,31,-9,0.00146484375,1.05029296875,-0.1240234375,0.4573170731707317,0.9451219512195123,-0.27439024390243905,0.038,0.038,0.989,0.66,-0.14,1.91,0.66,-0.83,1.74,1265,1265,1500,1500,3.2,0,3,1,1
201,56150407,1008,272,2187,-78,10,-7,5,0.1328125,1.06787109375,-0.0380859375,0.30487804878048785,-0.2134146341463415,0.15243902439024393,0.038,0.011,1.002,0.38,-0.32,1.29,0.66,-0.83,1.75,1266,1266,1500,1500,1.89,0,3,1,1
202,56151415,1008,378,2129,-198,14,-14,21,0.1845703125,1.03955078125,-0.0966796875,0.426829268292683,-0.426829268292683,0.6402439024390244,0.047,-0.019,1.007,0.03,-0.49,0.8,0.66,-0.83,1.75,1266,1266,1500,1500,1.95,0,3,1,1
203,56152423,1008,385,2085,-236,20,-42,47,0.18798828125,1.01806640625,-0.115234375,0.6097560975609757,-1.2804878048780488,1.4329268292682928,0.058,-0.046,1.009,-0.46,-0.66,0.19,0.66,-0.83,1.75,1265,1265,1500,1500,3.18,0,3,1,1
204,56153430,1007,254,2114,10,6,-91,73,0.1240234375,1.0322265625,0.0048828125,0.1829268292682927,-2.774390243902439,2.225609756097561,0.048,-0.058,1.013,-1.06,-0.63,-0.71,0.66,-0.83,1.75,1265,1265,1500,1500,3.27,0,3,1,1
205,56154439,1009,89,2141,118,-15,-94,86,0.04345703125,1.04541015625,0.0576171875,-0.4573170731707317,-2.8658536585365857,2.6219512195121952,0.031,-0.056,1.018,-1.58,-0.4,-1.34,0.66,-0.83,1.74,1265,1265,1500,1500,2.67,0,3,1,1
206,56155447,1008,-13,2136,15,-8,-73,81,-0.00634765625,1.04296875,0.00732421875,-0.24390243902439027,-2.225609756097561,2.4695121951219514,0.025,-0.046,1.022,-1.89,-0.31,-1.55,0.67,-0.84,1.74,1265,1265,1500,1500,2.02,0,3,1,1
207,56156454,1007,-100,2053,62,-2,-81,43,-0.048828125,1.00244140625,0.0302734375,-0.06097560975609757,-2.4695121951219514,1.3109756097560976,0.016,-0.031,1.019,-1.7,-0.32,-1.77,0.67,-0.84,1.74,1265,1265,1500,1500,1.09,0,3,1,1
208,56157461,1007,-59,1967,159,-23,-92,5,-0.02880859375,0.96044921875,0.07763671875,-0.701219512195122,-2.804878048780488,0.15243902439024393,0.001,-0.021,1.009,-1.19,-0.11,-2.03,0.67,-0.84,1.74,1265,1265,1500,1500,0.93,0,3,1,1
209,56158470,1009,16,1941,98,-59,-68,13,0.0078125,0.94775390625,0.0478515625,-1.7987804878048783,-2.073170731707317,0.39634146341463417,-0.006,-0.019,0.999,-0.93,0.39,-1.95,0.67,-0.83,1.74,1265,1265,1500,1500,1.27,0,3,1,1
210,56159478,1008,-149,1942,134,-75,-42,21,-0.07275390625,0.9482421875,0.0654296875,-2.2865853658536586,-1.2804878048780488,0.6402439024390244,-0.015,-0.004,0.991,-0.84,0.89,-1.64,0.67,-0.83,1.74,1265,1265,1500,1500,1.78,0,3,1,1
211,56160487,1009,-193,2043,114,-60,-19,-26,-0.09423828125,0.99755859375,0.0556640625,-1.829268292682927,-0.5792682926829269,-0.7926829268292683,-0.021,0.01,0.992,-0.3,1.07,-1.2,0.67,-0.83,1.73,1265,1265,1500,1500,2.47,0,3,1,1
212,56161495,1008,150,2090,-74,-34,30,-72,0.0732421875,1.0205078125,-0.0361328125,-1.0365853658536586,0.9146341463414634,-2.1951219512195124,-0.012,-0.002,0.997,0.52,0.93,-0.4,0.67,-0.83,1.73,1265,1265,1500,1500,1.65,0,3,1,1
213,56162502,1007,311,1903,30,-27,79,-66,0.15185546875,0.92919921875,0.0146484375,-0.8231707317073171,2.408536585365854,-2.0121951219512195,-0.013,-0.026,0.986,1.01,0.76,0.62,0.67,-0.83,1.73,1265,1265,1500,1500,1.8,0,3,1,1
214,56163511,1009,85,1781,105,-45,94,-55,0.04150390625,0.86962890625,0.05126953125,-1.3719512195121952,2.8658536585365857,-1.676829268292683,-0.019,-0.028,0.967,1.23,0.83,1.46,0.67,-0.83,1.74,1265,1265,1500,1500,2.21,0,3,1,1
215,56164519,1008,-127,1907,-193,-59,80,-59,-0.06201171875,0.93115234375,-0.09423828125,-1.7987804878048783,2.439024390243903,-1.7987804878048783,-0.001,-0.014,0.961,1.41,1.02,1.87,0.67,-0.82,1.74,1265,1265,1500,1500,0.91,0,3,1,1
216,56165526,1007,-289,2080,-275,-51,60,-44,-0.14111328125,1.015625,-0.13427734375,-1.5548780487804879,1.829268292682927,-1.3414634146341464,0.02,0.01,0.97,1.38,1.07,1.94,0.67,-0.82,1.74,1265,1265,1500,1500,1.34,0,3,1,1
217,56166534,1008,-338,2105,-142,-16,56,-12,-0.1650390625,1.02783203125,-0.0693359375,-0.48780487804878053,1.707317073170732,-0.3658536585365854,0.028,0.034,0.979,1.03,0.74,1.95,0.67,-0.82,1.74,1265,1265,1500,1500,2.83,0,3,1,1
218,56167541,1007,-80,2074,-199,8,39,18,-0.0390625,1.0126953125,-0.09716796875,0.24390243902439027,1.1890243902439026,0.5487804878048781,0.039,0.035,0.984,0.49,0.28,1.78,0.66,-0.82,1.74,1265,1265,1500,1500,3.09,0,3,1,1
219,56168549,1008,307,2127,-169,-7,-37,33,0.14990234375,1.03857421875,-0.08251953125,-0.2134146341463415,-1.128048780487805,1.0060975609756098,0.045,0.006,0.993,-0.01,0.12,0.89,0.66,-0.82,1.74,1265,1265,1500,1500,2.09,0,3,1,1
220,56169558,1009,547,2154,-156,-3,-100,38,0.26708984375,1.0517578125,-0.076171875,-0.09146341463414635,-3.048780487804878,1.1585365853658538,0.05,-0.037,1.002,-0.4,-0.01,-0.33,0.66,-0.83,1.74,1265,1265,1500,1500,2.53,0,3,1,1
221,56170566,1008,434,2148,-314,30,-94,43,0.2119140625,1.048828125,-0.1533203125,0.9146341463414634,-2.8658536585365857,1.3109756097560976,0.067,-0.064,1.009,-0.71,-0.44,-1.09,0.67,-0.83,1.74,1265,1265,1500,1500,4.22,0,3,1,1
222,56171575,1009,51,2181,-96,27,-80,43,0.02490234375,1.06494140625,-0.046875,0.8231707317073171,-2.439024390243903,1.3109756097560976,0.063,-0.058,1.018,-0.92,-0.7,-1.45,0.67,-0.83,1.74,1265,1265,1500,1500,3.79,0,3,1,1
223,56172583,1008,-203,2177,206,-11,-86,38,-0.09912109375,1.06298828125,0.1005859375,-0.3353658536585366,-2.6219512195121952,1.1585365853658538,0.037,-0.033,1.025,-1.0,-0.48,-1.75,0.67,-0.83,1.74,1265,1265,1500,1500,1.75,0,3,1,1
224,56173591,1008,-164,2075,133,-27,-99,39,-0.080078125,1.01318359375,0.06494140625,-0.8231707317073171,-3.0182926829268295,1.1890243902439026,0.021,-0.015,1.023,-1.07,-0.18,-2.09,0.67,-0.83,1.74,1265,1265,1500,1500,0.41,0,3,1,1
225,56174600,1009,-30,1936,160,-15,-106,33,-0.0146484375,0.9453125,0.078125,-0.4573170731707317,-3.231707317073171,1.0060975609756098,0.005,-0.01,1.011,-1.05,-0.1,-2.38,0.67,-0.83,1.74,1265,1265,1500,1500,0.51,0,3,1,1
226,56175608,1008,52,1906,208,-19,-77,5,0.025390625,0.9306640625,0.1015625,-0.5792682926829269,-2.347560975609756,0.15243902439024393,-0.011,-0.013,0.998,-0.76,0.0,-2.28,0.67,-0.83,1.73,1265,1265,1500,1500,1.48,0,3,1,1
227,56176616,1008,73,1987,-39,-34,-27,-27,0.03564453125,0.97021484375,-0.01904296875,-1.0365853658536586,-0.8231707317073171,-0.8231707317073171,-0.006,-0.016,0.994,-0.23,0.21,-1.71,0.67,-0.83,1.73,1265,1265,1500,1500,1.24,0,3,1,1
228,56177625,1009,-22,2001,-44,-47,22,-45,-0.0107421875,0.97705078125,-0.021484375,-1.4329268292682928,0.6707317073170732,-1.3719512195121952,-0.002,-0.012,0.991,0.29,0.48,-0.82,0.67,-0.83,1.73,1265,1265,1500,1500,0.95,0,3,1,1
229,56178633,1008,-103,1993,244,-67,56,-60,-0.05029296875,0.97314453125,0.119140625,-2.0426829268292686,1.707317073170732,-1.829268292682927,-0.02,-0.002,0.988,0.79,0.87,0.1,0.67,-0.83,1.73,1265,1265,1500,1500,2.1,0,3,1,1
230,56179641,1008,26,1987,194,-72,58,-70,0.0126953125,0.97021484375,0.0947265625,-2.1951219512195124,1.7682926829268295,-2.1341463414634148,-0.032,-0.004,0.985,1.23,1.18,0.75,0.67,-0.82,1.73,1265,1265,1500,1500,2.75,0,3,1,1
231,56180649,1008,145,1911,-31,-61,56,-56,0.07080078125,0.93310546875,-0.01513671875,-1.8597560975609757,1.707317073170732,-1.707317073170732,-0.024,-0.014,0.977,1.38,1.27,1.15,0.67,-0.82,1.73,1265,1265,1500,1500,2.29,0,3,1,1
232,56181656,1007,17,1958,-88,-52,74,-31,0.00830078125,0.9560546875,-0.04296875,-1.5853658536585367,2.25609756097561,-0.9451219512195123,-0.014,-0.013,0.973,1.23,1.24,1.61,0.67,-0.82,1.73,1265,1265,1500,1500,1.66,0,3,1,1
233,56182665,1009,-139,2098,-164,-50,71,-24,-0.06787109375,1.0244140625,-0.080078125,-1.524390243902439,2.164634146341464,-0.7317073170731708,0.0,0.0,0.981,1.05,1.2,1.88,0.67,-0.82,1.74,1265,1265,1500,1500,1.0,0,3,1,1
234,56183673,1008,-93,2125,-245,-48,41,-22,-0.04541015625,1.03759765625,-0.11962890625,-1.4634146341463417,1.25,-0.6707317073170732,0.019,0.006,0.99,0.92,1.16,1.75,0.67,-0.82,1.74,1265,1265,1500,1500,1.1,0,3,1,1
235,56184681,1008,51,2058,-184,-38,16,-1,0.02490234375,1.0048828125,-0.08984375,-1.1585365853658538,0.48780487804878053,-0.030487804878048783,0.03,0.001,0.992,0.61,1.02,1.42,0.66,-0.82,1.74,1265,1265,1500,1500,1.22,0,3,1,1
236,56185689,1008,164,1985,-118,-18,-13,33,0.080078125,0.96923828125,-0.0576171875,-0.5487804878048781,-0.39634146341463417,1.0060975609756098,0.035,-0.011,0.989,0.06,0.73,0.9,0.66,-0.82,1.74,1265,1265,1500,1500,1.21,0,3,1,1
237,56186697,1008,200,2034,-108,-10,-39,62,0.09765625,0.9931640625,-0.052734375,-0.30487804878048785,-1.1890243902439026,1.8902439024390245,0.037,-0.025,0.989,-0.59,0.46,0.28,0.67,-0.82,1.74,1265,1265,1500,1500,1.57,0,3,1,1
238,56187705,1008,128,2177,-158,-12,-54,82,0.0625,1.06298828125,-0.0771484375,-0.3658536585365854,-1.6463414634146343,2.5,0.044,-0.03,1.001,-1.23,0.29,-0.27,0.67,-0.82,1.74,1265,1265,1500,1500,2.02,0,3,1,1
239,56188714,1009,-27,2176,-235,14,-79,70,-0.01318359375,1.0625,-0.11474609375,0.426829268292683,-2.408536585365854,2.1341463414634148,0.055,-0.023,1.011,-1.54,-0.07,-0.89,0.67,-0.82,1.74,1265,1265,1500,1500,2.41,0,3,1,1
240,56189722,1008,-81,2078,-113,38,-114,25,-0.03955078125,1.0146484375,-0.05517578125,1.1585365853658538,-3.4756097560975614,0.7621951219512195,0.055,-0.013,1.011,-1.29,-0.57,-1.67,0.67,-0.82,1.74,1265,1265,1500,1500,2.3,0,3,1,1
241,56190730,1008,59,2032,54,17,-133,3,0.02880859375,0.9921875,0.0263671875,0.5182926829268293,-4.0548780487804885,0.09146341463414635,0.042,-0.016,1.008,-0.89,-0.68,-2.38,0.67,-0.82,1.74,1265,1265,1500,1500,1.59,0,3,1,1
242,56191739,1009,44,1980,67,-13,-128,9,0.021484375,0.966796875,0.03271484375,-0.39634146341463417,-3.9024390243902443,0.27439024390243905,0.03,-0.017,1.001,-0.69,-0.45,-2.8,0.67,-0.82,1.73,1265,1265,1500,1500,0.96,0,3,1,1
243,56192747,1008,-128,1966,122,-18,-92,-3,-0.0625,0.9599609375,0.0595703125,-0.5487804878048781,-2.804878048780488,-0.09146341463414635,0.016,-0.004,0.995,-0.43,-0.25,-2.71,0.67,-0.82,1.73,1265,1265,1500,1500,0.43,0,3,1,1
244,56193754,1007,-83,2022,182,-25,-37,-31,-0.04052734375,0.9873046875,0.0888671875,-0.7621951219512195,-1.128048780487805,-0.9451219512195123,0.0,0.002,0.994,0.01,-0.04,-2.09,0.67,-0.82,1.73,1265,1265,1500,1500,1.19,0,3,1,1
245,56194762,1008,61,1997,152,-38,9,-48,0.02978515625,0.97509765625,0.07421875,-1.1585365853658538,0.27439024390243905,-1.4634146341463417,-0.012,-0.002,0.991,0.49,0.22,-1.21,0.67,-0.82,1.73,1265,1265,1500,1500,1.62,0,3,1,1
246,56195770,1008,77,1901,126,-47,47,-59,0.03759765625,0.92822265625,0.0615234375,-1.4329268292682928,1.4329268292682928,-1.7987804878048783,-0.02,-0.008,0.981,0.92,0.49,-0.24,0.67,-0.82,1.73,1265,1265,1500,1500,2.0,0,3,1,1
247,56196779,1009,26,1850,63,-54,70,-76,0.0126953125,0.9033203125,0.03076171875,-1.6463414634146343,2.1341463414634148,-2.3170731707317076,-0.021,-0.008,0.968,1.38,0.74,0.63,0.67,-0.82,1.73,1265,1265,1500,1500,2.11,0,3,1,1
248,56197787,1008,-55,1948,23,-72,73,-77,-0.02685546875,0.951171875,0.01123046875,-2.1951219512195124,2.225609756097561,-2.347560975609756,-0.02,-0.003,0.965,1.69,1.1,1.25,0.67,-0.82,1.73,1265,1265,1500,1500,2.07,0,3,1,1
249,56198795,1008,-169,2163,22,-79,86,-40,-0.08251953125,1.05615234375,0.0107421875,-2.408536585365854,2.6219512195121952,-1.2195121951219514,-0.018,0.01,0.98,1.53,1.4,1.8,0.66,-0.81,1.73,1265,1265,1500,1500,2.29,0,3,1,1
250,56199803,1008,-187,2209,-80,-53,87,-2,-0.09130859375,1.07861328125,-0.0390625,-1.6158536585365855,2.6524390243902443,-0.06097560975609757,-0.009,0.023,0.995,1.03,1.34,2.17,0.66,-0.81,1.73,1265,1265,1500,1500,2.42,0,3,1,1
251,56200811,1008,54,2046,-80,-41,38,6,0.0263671875,0.9990234375,-0.0390625,-1.25,1.1585365853658538,0.1829268292682927,-0.001,0.015,0.996,0.61,1.18,1.92,0.66,-0.81,1.73,1265,1265,1500,1500,1.8,0,3,1,1
252,56201818,1007,388,1965,0,-57,-6,20,0.189453125,0.95947265625,0.0,-1.7378048780487807,-0.1829268292682927,0.6097560975609757,-0.001,-0.017,0.99,0.2,1.23,1.3,0.66,-0.81,1.74,1265,1265,1500,1500,0.95,0,3,1,1
253,56202826,1008,350,2108,-168,-50,-11,51,0.1708984375,1.029296875,-0.08203125,-1.524390243902439,-0.3353658536585366,1.5548780487804879,0.011,-0.041,0.996,-0.39,1.2,0.84,0.66,-0.81,1.74,1265,1265,1500,1500,1.72,0,3,1,1
254,56203835,1009,45,2214,-272,-5,-18,62,0.02197265625,1.0810546875,-0.1328125,-0.15243902439024393,-0.5487804878048781,1.8902439024390245,0.03,-0.038,1.01,-0.9,0.71,0.46,0.66,-0.81,1.74,1265,1265,1500,1500,1.78,0,3,1,1
255,56204843,1008,-46,2142,-177,23,-32,60,-0.0224609375,1.0458984375,-0.08642578125,0.701219512195122,-0.9756097560975611,1.829268292682927,0.039,-0.028,1.015,-1.21,0.11,0.06,0.67,-0.81,1.74,1265,1265,1500,1500,1.71,0,3,1,1
256,56205851,1008,-39,2102,-184,16,-58,64,-0.01904296875,1.0263671875,-0.08984375,0.48780487804878053,-1.7682926829268295,1.9512195121951221,0.047,-0.021,1.017,-1.47,-0.22,-0.45,0.67,-0.81,1.74,1265,1265,1500,1500,1.94,0,3,1,1
257,56206860,1009,-8,2104,-105,11,-99,59,-0.00390625,1.02734375,-0.05126953125,0.3353658536585366,-3.0182926829268295,1.7987804878048783,0.048,-0.017,1.018,-1.58,-0.39,-1.22,0.67,-0.81,1.74,1265,1265,1500,1500,1.92,0,3,1,1
258,56207867,1007,139,2000,46,13,-114,43,0.06787109375,0.9765625,0.0224609375,0.39634146341463417,-3.4756097560975614,1.3109756097560976,0.037,-0.025,1.012,-1.5,-0.52,-1.89,0.67,-0.81,1.73,1265,1265,1500,1500,1.48,0,3,1,1
259,56208875,1008,74,1891,-36,12,-100,22,0.0361328125,0.92333984375,-0.017578125,0.3658536585365854,-3.048780487804878,0.6707317073170732,0.033,-0.026,0.998,-1.23,-0.6,-2.19,0.67,-0.81,1.73,1265,1265,1500,1500,1.42,0,3,1,1
260,56209883,1008,-184,1930,-118,15,-76,-9,-0.08984375,0.9423828125,-0.0576171875,0.4573170731707317,-2.3170731707317076,-0.27439024390243905,0.037,-0.008,0.989,-0.73,-0.68,-2.14,0.67,-0.81,1.73,1265,1265,1500,1500,1.38,0,3,1,1
261,56210891,1008,-222,2022,103,7,-32,-39,-0.1083984375,0.9873046875,0.05029296875,0.2134146341463415,-0.9756097560975611,-1.1890243902439026,0.023,0.01,0.988,-0.09,-0.66,-1.66,0.67,-0.81,1.73,1266,1266,1500,1500,1.38,0,3,1,1
262,56211899,1008,-56,1994,275,-27,12,-54,-0.02734375,0.9736328125,0.13427734375,-0.8231707317073171,0.3658536585365854,-1.6463414634146343,-0.001,0.012,0.986,0.47,-0.29,-0.9,0.67,-0.81,1.73,1266,1266,1500,1500,1.68,0,3,1,1
263,56212907,1008,125,1894,125,-49,33,-62,0.06103515625,0.9248046875,0.06103515625,-1.4939024390243905,1.0060975609756098,-1.8902439024390245,-0.01,0.001,0.976,0.94,0.17,-0.17,0.67,-0.81,1.73,1265,1265,1500,1500,1.63,0,3,1,1
264,56213916,1009,201,1836,-3,-35,60,-62,0.09814453125,0.896484375,-0.00146484375,-1.0670731707317074,1.829268292682927,-1.8902439024390245,-0.008,-0.014,0.964,1.25,0.33,0.58,0.67,-0.81,1.73,1265,1265,1500,1500,1.35,0,3,1,1
265,56214924,1008,3,1835,75,-32,96,-54,0.00146484375,0.89599609375,0.03662109375,-0.9756097560975611,2.9268292682926833,-1.6463414634146343,-0.013,-0.012,0.953,1.37,0.41,1.45,0.67,-0.81,1.73,1265,1265,1500,1500,1.61,0,3,1,1
266,56215932,1008,-265,1915,95,-50,104,-54,-0.12939453125,0.93505859375,0.04638671875,-1.524390243902439,3.1707317073170733,-1.6463414634146343,-0.018,0.009,0.95,1.46,0.65,2.11,0.67,-0.81,1.73,1265,1265,1500,1500,2.31,0,3,1,1
267,56216940,1008,-315,2087,-39,-58,105,-48,-0.15380859375,1.01904296875,-0.01904296875,-1.7682926829268295,3.2012195121951224,-1.4634146341463417,-0.012,0.032,0.961,1.45,0.89,2.56,0.66,-0.81,1.73,1265,1265,1500,1500,3.05,0,3,1,1
268,56217949,1009,-212,2272,-11,-54,116,-21,-0.103515625,1.109375,-0.00537109375,-1.6463414634146343,3.536585365853659,-0.6402439024390244,-0.009,0.044,0.984,1.17,1.01,2.97,0.66,-0.81,1.74,1265,1265,1500,1500,3.5,0,3,1,1
269,56218957,1008,44,2264,87,-43,87,16,0.021484375,1.10546875,0.04248046875,-1.3109756097560976,2.6524390243902443,0.48780487804878053,-0.014,0.033,1.003,0.61,0.98,2.95,0.66,-0.8,1.74,1265,1265,1500,1500,3.07,0,3,1,1
270,56219965,1008,374,2068,-83,-25,20,38,0.1826171875,1.009765625,-0.04052734375,-0.7621951219512195,0.6097560975609757,1.1585365853658538,-0.006,0.0,1.004,0.01,0.77,2.25,0.66,-0.8,1.74,1266,1266,1500,1500,1.31,0,3,1,1
271,56220974,1009,534,2027,-289,1,-26,46,0.2607421875,0.98974609375,-0.14111328125,0.030487804878048783,-0.7926829268292683,1.402439024390244,0.017,-0.041,1.002,-0.46,0.37,1.32,0.66,-0.8,1.74,1266,1266,1500,1500,1.74,0,3,1,1
272,56221982,1008,379,2209,-278,17,-40,59,0.18505859375,1.07861328125,-0.1357421875,0.5182926829268293,-1.2195121951219514,1.7987804878048783,0.036,-0.064,1.014,-0.92,-0.05,0.56,0.66,-0.8,1.74,1266,1266,1500,1500,3.22,0,3,1,1
273,56222990,1008,-7,2316,-123,8,-58,72,-0.00341796875,1.130859375,-0.06005859375,0.24390243902439027,-1.7682926829268295,2.1951219512195124,0.039,-0.053,1.032,-1.35,-0.25,-0.13,0.66,-0.8,1.74,1266,1266,1500,1500,2.7,0,3,1,1
274,56223998,1008,-221,2236,-164,3,-94,67,-0.10791015625,1.091796875,-0.080078125,0.09146341463414635,-2.8658536585365857,2.0426829268292686,0.046,-0.028,1.042,-1.59,-0.32,-0.95,0.67,-0.8,1.74,1266,1266,1500,1500,1.94,0,3,1,1
275,56225007,1009,-61,2069,-290,28,-141,53,-0.02978515625,1.01025390625,-0.1416015625,0.853658536585366,-4.298780487804878,1.6158536585365855,0.061,-0.018,1.037,-1.6,-0.63,-1.98,0.67,-0.81,1.74,1266,1266,1500,1500,2.6,0,3,1,1
276,56226015,1008,146,1898,-4,32,-175,47,0.0712890625,0.9267578125,-0.001953125,0.9756097560975611,-5.335365853658537,1.4329268292682928,0.051,-0.027,1.019,-1.55,-0.88,-3.02,0.67,-0.81,1.74,1266,1266,1500,1500,2.27,0,3,1,1
277,56227023,1008,122,1823,212,-16,-166,45,0.0595703125,0.89013671875,0.103515625,-0.48780487804878053,-5.060975609756098,1.3719512195121952,0.027,-0.032,0.999,-1.5,-0.55,-3.61,0.67,-0.81,1.73,1266,1266,1500,1500,1.4,0,3,1,1
278,56228030,1007,-61,1875,-19,-47,-122,24,-0.02978515625,0.91552734375,-0.00927734375,-1.4329268292682928,-3.7195121951219514,0.7317073170731708,0.024,-0.022,0.985,-1.25,-0.02,-3.56,0.67,-0.81,1.73,1266,1266,1500,1500,0.87,0,3,1,1
279,56229038,1008,-188,1982,-103,-25,-52,-14,-0.091796875,0.9677734375,-0.05029296875,-0.7621951219512195,-1.5853658536585367,-0.426829268292683,0.028,-0.004,0.983,-0.69,0.1,-2.81,0.67,-0.81,1.73,1266,1266,1500,1500,0.94,0,3,1,1
280,56230046,1008,-144,2031,117,-3,16,-47,-0.0703125,0.99169921875,0.05712890625,-0.09146341463414635,0.48780487804878053,-1.4329268292682928,0.014,0.007,0.984,0.0,-0.02,-1.62,0.67,-0.81,1.73,1266,1266,1500,1500,1.11,0,3,1,1
281,56231055,1009,-5,1941,267,-34,41,-70,-0.00244140625,0.94775390625,0.13037109375,-1.0365853658536586,1.25,-2.1341463414634148,-0.008,0.006,0.978,0.71,0.19,-0.57,0.67,-0.81,1.72,1266,1266,1500,1500,1.67,0,3,1,1
282,56232063,1008,144,1813,210,-79,52,-78,0.0703125,0.88525390625,0.1025390625,-2.408536585365854,1.5853658536585367,-2.378048780487805,-0.023,-0.005,0.963,1.26,0.8,0.23,0.67,-0.81,1.72,1266,1266,1500,1500,2.21,0,3,1,1
283,56233071,1008,104,1792,29,-75,91,-65,0.05078125,0.875,0.01416015625,-2.2865853658536586,2.774390243902439,-1.981707317073171,-0.021,-0.012,0.949,1.49,1.16,1.17,0.67,-0.81,1.73,1266,1266,1500,1500,2.12,0,3,1,1
284,56234079,1008,-185,1911,-65,-42,139,-49,-0.09033203125,0.93310546875,-0.03173828125,-1.2804878048780488,4.237804878048781,-1.4939024390243905,-0.013,0.003,0.947,1.48,1.07,2.28,0.67,-0.8,1.73,1266,1266,1500,1500,1.84,0,3,1,1
285,56235088,1009,-353,2094,-43,-33,157,-45,-0.17236328125,1.0224609375,-0.02099609375,-1.0060975609756098,4.786585365853659,-1.3719512195121952,-0.007,0.03,0.959,1.44,0.91,3.2,0.66,-0.8,1.73,1266,1266,1500,1500,2.79,0,3,1,1
286,56236096,1008,-241,2194,-55,-55,135,-42,-0.11767578125,1.0712890625,-0.02685546875,-1.676829268292683,4.115853658536586,-1.2804878048780488,-0.002,0.044,0.976,1.38,1.04,3.59,0.66,-0.8,1.74,1266,1266,1500,1500,3.39,0,3,1,1
287,56237104,1008,-54,2200,-110,-62,100,-18,-0.0263671875,1.07421875,-0.0537109375,-1.8902439024390245,3.048780487804878,-0.5487804878048781,0.006,0.041,0.992,1.09,1.19,3.5,0.66,-0.8,1.74,1266,1266,1500,1500,3.08,0,3,1,1
288,56238112,1008,122,2148,-165,-32,60,23,0.0595703125,1.048828125,-0.08056640625,-0.9756097560975611,1.829268292682927,0.701219512195122,0.018,0.025,1.001,0.48,0.98,3.02,0.66,-0.8,1.74,1266,1266,1500,1500,2.13,0,3,1,1
289,56239120,1008,350,2076,-172,-7,11,51,0.1708984375,1.013671875,-0.083984375,-0.2134146341463415,0.3353658536585366,1.5548780487804879,0.028,-0.005,1.003,-0.2,0.59,2.21,0.66,-0.8,1.74,1266,1266,1500,1500,0.9,0,3,1,1
290,56240128,1008,540,2105,-227,4,-22,62,0.263671875,1.02783203125,-0.11083984375,0.12195121951219513,-0.6707317073170732,1.8902439024390245,0.041,-0.046,1.007,-0.77,0.22,1.33,0.66,-0.8,1.75,1265,1265,1500,1500,2.53,0,3,1,1
291,56241136,1008,418,2254,-231,6,-41,67,0.2041015625,1.1005859375,-0.11279296875,0.1829268292682927,-1.25,2.0426829268292686,0.053,-0.071,1.021,-1.2,-0.04,0.55,0.66,-0.8,1.75,1265,1265,1500,1500,3.98,0,3,1,1
292,56242143,1007,48,2325,-30,-4,-72,64,0.0234375,1.13525390625,-0.0146484375,-0.12195121951219513,-2.1951219512195124,1.9512195121951221,0.046,-0.063,1.039,-1.46,-0.12,-0.27,0.66,-0.8,1.75,1265,1265,1500,1500,3.36,0,3,1,1
293,56243152,1009,-123,2166,-57,-1,-119,53,-0.06005859375,1.0576171875,-0.02783203125,-0.030487804878048783,-3.628048780487805,1.6158536585365855,0.043,-0.044,1.042,-1.52,-0.2,-1.3,0.67,-0.8,1.74,1265,1265,1500,1500,2.38,0,3,1,1
294,56244160,1008,-50,1930,-140,-1,-165,39,-0.0244140625,0.9423828125,-0.068359375,-0.030487804878048783,-5.0304878048780495,1.1890243902439026,0.047,-0.033,1.026,-1.41,-0.25,-2.46,0.67,-0.8,1.74,1265,1265,1500,1500,2.2,0,3,1,1
295,56245168,1008,23,1853,137,-24,-173,35,0.01123046875,0.90478515625,0.06689453125,-0.7317073170731708,-5.274390243902439,1.0670731707317074,0.029,-0.029,1.007,-1.3,-0.05,-3.31,0.67,-0.8,1.74,1265,1265,1500,1500,1.34,0,3,1,1
296,56246177,1009,-6,1905,186,-42,-133,38,-0.0029296875,0.93017578125,0.0908203125,-1.2804878048780488,-4.0548780487804885,1.1585365853658538,0.01,-0.024,0.995,-1.26,0.25,-3.47,0.67,-0.8,1.74,1265,1265,1500,1500,0.77,0,3,1,1
297,56247185,1008,-163,1923,19,-46,-89,20,-0.07958984375,0.93896484375,0.00927734375,-1.402439024390244,-2.713414634146342,0.6097560975609757,0.007,-0.008,0.986,-1.05,0.5,-3.13,0.67,-0.8,1.73,1265,1265,1500,1500,0.43,0,3,1,1
298,56248194,1009,-200,1956,74,-44,-56,-25,-0.09765625,0.955078125,0.0361328125,-1.3414634146341464,-1.707317073170732,-0.7621951219512195,0.0,0.008,0.981,-0.45,0.65,-2.57,0.67,-0.8,1.73,1266,1266,1500,1500,1.41,0,3,1,1
299,56249202,1008,-2,1976,110,-41,-11,-66,-0.0009765625,0.96484375,0.0537109375,-1.25,-0.3353658536585366,-2.0121951219512195,-0.008,0.007,0.978,0.36,0.72,-1.73,0.67,-0.8,1.73,1266,1266,1500,1500,1.69,0,3,1,1
300,56250209,1007,171,1868,157,-45,34,-81,0.08349609375,0.912109375,0.07666015625,-1.3719512195121952,1.0365853658536586,-2.4695121951219514,-0.018,-0.007,0.968,1.06,0.8,-0.72,0.67,-0.8,1.73,1266,1266,1500,1500,1.94,0,3,1,1
301,56251217,1008,174,1771,155,-61,77,-71,0.0849609375,0.86474609375,0.07568359375,-1.8597560975609757,2.347560975609756,-2.164634146341464,-0.027,-0.019,0.951,1.42,1.02,0.39,0.67,-0.8,1.73,1266,1266,1500,1500,2.53,0,3,1,1
302,56252226,1009,-53,1864,-46,-69,110,-55,-0.02587890625,0.91015625,-0.0224609375,-2.103658536585366,3.353658536585366,-1.676829268292683,-0.019,-0.012,0.945,1.5,1.25,1.47,0.67,-0.79,1.73,1266,1266,1500,1500,2.01,0,3,1,1
303,56253234,1008,-349,2104,-126,-54,122,-48,-0.17041015625,1.02734375,-0.0615234375,-1.6463414634146343,3.7195121951219514,-1.4634146341463417,-0.007,0.016,0.958,1.48,1.25,2.3,0.67,-0.79,1.73,1266,1266,1500,1500,2.07,0,3,1,1
304,56254241,1007,-311,2244,-167,-30,122,-41,-0.15185546875,1.095703125,-0.08154296875,-0.9146341463414634,3.7195121951219514,-1.25,0.006,0.038,0.979,1.39,1.0,2.86,0.66,-0.79,1.73,1265,1265,1500,1500,2.93,0,3,1,1
305,56255250,1009,-62,2203,-269,-22,100,-25,-0.0302734375,1.07568359375,-0.13134765625,-0.6707317073170732,3.048780487804878,-0.7621951219512195,0.026,0.036,0.995,1.17,0.76,3.01,0.66,-0.79,1.74,1265,1265,1500,1500,2.89,0,3,1,1
306,56256257,1007,77,2130,-219,-27,50,-4,0.03759765625,1.0400390625,-0.10693359375,-0.8231707317073171,1.524390243902439,-0.12195121951219513,0.039,0.025,1.002,0.81,0.65,2.6,0.66,-0.79,1.74,1265,1265,1500,1500,2.55,0,3,1,1
307,56257263,1006,230,2070,-145,-33,-6,24,0.1123046875,1.0107421875,-0.07080078125,-1.0060975609756098,-0.1829268292682927,0.7317073170731708,0.044,0.003,1.003,0.29,0.63,1.75,0.66,-0.79,1.74,1265,1265,1500,1500,1.93,0,3,1,1
308,56258272,1009,415,2064,-70,-42,-36,59,0.20263671875,1.0078125,-0.0341796875,-1.2804878048780488,-1.0975609756097562,1.7987804878048783,0.042,-0.029,1.004,-0.41,0.72,0.89,0.66,-0.79,1.74,1265,1265,1500,1500,1.93,0,3,1,1
309,56259279,1007,407,2168,-52,-33,-36,90,0.19873046875,1.05859375,-0.025390625,-1.0060975609756098,-1.0975609756097562,2.7439024390243905,0.04,-0.056,1.012,-1.2,0.68,0.31,0.66,-0.79,1.74,1265,1265,1500,1500,2.9,0,3,1,1
310,56260287,1008,155,2260,-180,-8,-46,88,0.07568359375,1.103515625,-0.087890625,-0.24390243902439027,-1.402439024390244,2.682926829268293,0.047,-0.059,1.027,-1.7,0.4,-0.17,0.66,-0.79,1.74,1265,1265,1500,1500,3.22,0,3,1,1
311,56261296,1009,-46,2236,-141,-1,-94,55,-0.0224609375,1.091796875,-0.06884765625,-0.030487804878048783,-2.8658536585365857,1.676829268292683,0.05,-0.046,1.037,-1.7,0.14,-0.98,0.67,-0.79,1.74,1265,1265,1500,1500,2.76,0,3,1,1
312,56262304,1008,7,2080,51,-26,-139,25,0.00341796875,1.015625,0.02490234375,-0.7926829268292683,-4.237804878048781,0.7621951219512195,0.038,-0.039,1.034,-1.39,0.23,-1.98,0.67,-0.79,1.74,1265,1265,1500,1500,2.03,0,3,1,1
313,56263312,1008,50,1876,158,-65,-142,18,0.0244140625,0.916015625,0.0771484375,-1.981707317073171,-4.329268292682928,0.5487804878048781,0.02,-0.037,1.015,-1.11,0.68,-2.68,0.67,-0.79,1.74,1265,1265,1500,1500,1.46,0,3,1,1
314,56264321,1009,-67,1825,211,-84,-115,22,-0.03271484375,0.89111328125,0.10302734375,-2.5609756097560976,-3.50609756097561,0.6707317073170732,0.0,-0.026,0.995,-0.97,1.18,-2.87,0.67,-0.79,1.73,1265,1265,1500,1500,1.1,0,3,1,1
315,56265329,1008,-170,1926,212,-73,-66,17,-0.0830078125,0.9404296875,0.103515625,-2.225609756097561,-2.0121951219512195,0.5182926829268293,-0.015,-0.008,0.986,-0.82,1.39,-2.49,0.67,-0.79,1.73,1265,1265,1500,1500,1.71,0,3,1,1
316,56266337,1008,-190,2019,82,-44,-17,-6,-0.0927734375,0.98583984375,0.0400390625,-1.3414634146341464,-0.5182926829268293,-0.1829268292682927,-0.019,0.007,0.986,-0.49,1.24,-1.74,0.67,-0.79,1.73,1265,1265,1500,1500,2.22,0,3,1,1
317,56267346,1009,-109,2012,-35,-28,2,-46,-0.05322265625,0.982421875,-0.01708984375,-0.853658536585366,0.06097560975609757,-1.402439024390244,-0.013,0.014,0.986,0.13,0.98,-1.05,0.67,-0.78,1.73,1265,1265,1500,1500,2.2,0,3,1,1
318,56268354,1008,114,1831,3,-42,13,-82,0.0556640625,0.89404296875,0.00146484375,-1.2804878048780488,0.39634146341463417,-2.5,-0.011,0.003,0.971,0.91,0.95,-0.48,0.67,-0.78,1.73,1265,1265,1500,1500,1.72,0,3,1,1
319,56269363,1009,262,1669,38,-60,49,-88,0.1279296875,0.81494140625,0.0185546875,-1.829268292682927,1.4939024390243905,-2.682926829268293,-0.012,-0.017,0.946,1.5,1.11,0.26,0.67,-0.78,1.73,1265,1265,1500,1500,1.6,0,3,1,1
320,56270371,1008,63,1866,0,-57,104,-63,0.03076171875,0.9111328125,0.0,-1.7378048780487807,3.1707317073170733,-1.9207317073170733,-0.01,-0.019,0.94,1.63,1.18,1.32,0.67,-0.78,1.73,1265,1265,1500,1500,1.53,0,3,1,1
321,56271379,1008,-303,2161,-60,-42,131,-37,-0.14794921875,1.05517578125,-0.029296875,-1.2804878048780488,3.9939024390243905,-1.128048780487805,-0.004,0.007,0.959,1.45,1.08,2.3,0.67,-0.78,1.73,1265,1265,1500,1500,1.51,0,3,1,1
322,56272387,1008,-362,2172,-187,-21,109,-28,-0.1767578125,1.060546875,-0.09130859375,-0.6402439024390244,3.3231707317073176,-0.853658536585366,0.01,0.033,0.975,1.24,0.8,2.73,0.66,-0.78,1.73,1265,1265,1500,1500,2.67,0,3,1,1
323,56273395,1008,-97,2166,-276,-11,62,-18,-0.04736328125,1.0576171875,-0.134765625,-0.3353658536585366,1.8902439024390245,-0.5487804878048781,0.03,0.036,0.988,1.0,0.51,2.53,0.66,-0.78,1.74,1265,1265,1500,1500,2.93,0,3,1,1
324,56274403,1008,145,2243,-224,-13,17,-4,0.07080078125,1.09521484375,-0.109375,-0.39634146341463417,0.5182926829268293,-0.12195121951219513,0.042,0.019,1.005,0.7,0.34,1.94,0.66,-0.78,1.74,1266,1266,1500,1500,2.42,0,3,1,1
325,56275411,1008,294,2153,-162,-14,-4,16,0.1435546875,1.05126953125,-0.0791015625,-0.426829268292683,-0.12195121951219513,0.48780487804878053,0.048,-0.006,1.012,0.29,0.24,1.34,0.66,-0.78,1.74,1266,1266,1500,1500,1.99,0,3,1,1
326,56276419,1008,353,2022,-135,-17,-25,42,0.17236328125,0.9873046875,-0.06591796875,-0.5182926829268293,-0.7621951219512195,1.2804878048780488,0.051,-0.032,1.008,-0.23,0.2,0.72,0.66,-0.78,1.74,1266,1266,1500,1500,2.45,0,3,1,1
327,56277427,1008,333,2031,-82,-7,-48,67,0.16259765625,0.99169921875,-0.0400390625,-0.2134146341463415,-1.4634146341463417,2.0426829268292686,0.049,-0.053,1.005,-0.84,0.07,0.08,0.66,-0.78,1.74,1266,1266,1500,1500,3.13,0,3,1,1
328,56278436,1009,199,2153,17,-12,-67,89,0.09716796875,1.05126953125,0.00830078125,-0.3658536585365854,-2.0426829268292686,2.713414634146342,0.04,-0.06,1.013,-1.47,0.03,-0.54,0.67,-0.78,1.74,1265,1265,1500,1500,3.12,0,3,1,1
329,56279444,1008,-62,2244,77,-23,-91,83,-0.0302734375,1.095703125,0.03759765625,-0.701219512195122,-2.774390243902439,2.530487804878049,0.028,-0.046,1.026,-1.83,0.12,-1.2,0.67,-0.78,1.74,1265,1265,1500,1500,2.05,0,3,1,1
330,56280452,1008,-91,2089,44,-32,-114,44,-0.04443359375,1.02001953125,0.021484375,-0.9756097560975611,-3.4756097560975614,1.3414634146341464,0.02,-0.031,1.025,-1.67,0.27,-1.87,0.67,-0.78,1.74,1266,1266,1500,1500,1.15,0,3,1,1
331,56281460,1008,86,1866,78,-56,-115,16,0.0419921875,0.9111328125,0.0380859375,-1.707317073170732,-3.50609756097561,0.48780487804878053,0.01,-0.033,1.007,-1.28,0.62,-2.33,0.67,-0.78,1.74,1266,1266,1500,1500,1.23,0,3,1,1
332,56282468,1008,19,1889,187,-62,-72,14,0.00927734375,0.92236328125,0.09130859375,-1.8902439024390245,-2.1951219512195124,0.426829268292683,-0.005,-0.029,0.993,-1.0,0.91,-2.2,0.67,-0.78,1.73,1266,1266,1500,1500,1.49,0,3,1,1
333,56283476,1008,-234,2023,212,-63,-29,11,-0.1142578125,0.98779296875,0.103515625,-1.9207317073170733,-0.8841463414634148,0.3353658536585366,-0.02,-0.006,0.992,-0.78,1.12,-1.67,0.67,-0.78,1.73,1266,1266,1500,1500,2.0,0,3,1,1
334,56284485,1009,-292,2028,187,-73,-13,-10,-0.142578125,0.990234375,0.09130859375,-2.225609756097561,-0.39634146341463417,-0.30487804878048785,-0.032,0.016,0.992,-0.43,1.35,-1.15,0.67,-0.77,1.73,1266,1266,1500,1500,3.11,0,3,1,1
335,56285493,1008,-93,1989,24,-68,-3,-36,-0.04541015625,0.97119140625,0.01171875,-2.073170731707317,-0.09146341463414635,-1.0975609756097562,-0.028,0.021,0.988,0.07,1.46,-0.71,0.67,-0.77,1.73,1266,1266,1500,1500,3.11,0,3,1,1
336,56286500,1007,128,1940,-149,-38,18,-57,0.0625,0.947265625,-0.07275390625,-1.1585365853658538,0.5487804878048781,-1.7378048780487807,-0.012,0.008,0.982,0.62,1.23,-0.2,0.67,-0.77,1.73,1266,1266,1500,1500,1.9,0,3,1,1
337,56287508,1008,270,1775,40,-29,62,-68,0.1318359375,0.86669921875,0.01953125,-0.8841463414634148,1.8902439024390245,-2.073170731707317,-0.013,-0.014,0.964,1.1,0.98,0.58,0.67,-0.77,1.73,1266,1266,1500,1500,1.6,0,3,1,1
338,56288516,1008,170,1773,137,-64,104,-57,0.0830078125,0.86572265625,0.06689453125,-1.9512195121951221,3.1707317073170733,-1.7378048780487807,-0.022,-0.024,0.948,1.3,1.17,1.53,0.67,-0.76,1.73,1265,1265,1500,1500,2.27,0,3,1,1
339,56289524,1008,-229,2076,-148,-73,110,-38,-0.11181640625,1.013671875,-0.072265625,-2.225609756097561,3.353658536585366,-1.1585365853658538,-0.007,-0.003,0.958,1.25,1.39,2.23,0.67,-0.76,1.73,1265,1265,1500,1500,1.29,0,3,1,1
340,56290532,1008,-398,2227,-329,-27,91,-23,-0.1943359375,1.08740234375,-0.16064453125,-0.8231707317073171,2.774390243902439,-0.701219512195122,0.019,0.028,0.979,1.05,1.07,2.49,0.67,-0.76,1.74,1265,1265,1500,1500,2.34,0,3,1,1
341,56291539,1007,-114,2127,-260,15,62,-2,-0.0556640625,1.03857421875,-0.126953125,0.4573170731707317,1.8902439024390245,-0.06097560975609757,0.036,0.032,0.988,0.71,0.42,2.38,0.66,-0.76,1.74,1265,1265,1500,1500,2.88,0,3,1,1
342,56292545,1006,229,2113,-128,1,22,21,0.11181640625,1.03173828125,-0.0625,0.030487804878048783,0.6707317073170732,0.6402439024390244,0.04,0.009,0.995,0.25,0.14,1.89,0.66,-0.76,1.74,1265,1265,1500,1500,1.98,0,3,1,1
343,56293553,1008,409,2152,-186,-18,-13,39,0.19970703125,1.05078125,-0.0908203125,-0.5487804878048781,-0.39634146341463417,1.1890243902439026,0.048,-0.023,1.004,-0.23,0.14,1.21,0.66,-0.76,1.74,1265,1265,1500,1500,2.11,0,3,1,1
344,56294562,1009,381,2106,-264,-4,-36,51,0.18603515625,1.0283203125,-0.12890625,-0.12195121951219513,-1.0975609756097562,1.5548780487804879,0.061,-0.049,1.008,-0.68,0.0,0.53,0.67,-0.76,1.74,1265,1265,1500,1500,3.45,0,3,1,1
345,56295569,1007,148,2087,-95,9,-51,59,0.072265625,1.01904296875,-0.04638671875,0.27439024390243905,-1.5548780487804879,1.7987804878048783,0.058,-0.053,1.009,-1.06,-0.21,-0.08,0.67,-0.77,1.74,1265,1265,1500,1500,3.47,0,3,1,1
346,56296577,1008,-101,2120,15,-2,-74,64,-0.04931640625,1.03515625,0.00732421875,-0.06097560975609757,-2.25609756097561,1.9512195121951221,0.048,-0.036,1.013,-1.36,-0.25,-0.72,0.67,-0.77,1.74,1265,1265,1500,1500,2.41,0,3,1,1
347,56297584,1007,-199,2103,69,-29,-92,68,-0.09716796875,1.02685546875,0.03369140625,-0.8841463414634148,-2.804878048780488,2.073170731707317,0.035,-0.015,1.015,-1.61,0.0,-1.33,0.67,-0.77,1.74,1265,1265,1500,1500,1.24,0,3,1,1
348,56298593,1009,-93,2024,226,-47,-94,58,-0.04541015625,0.98828125,0.1103515625,-1.4329268292682928,-2.8658536585365857,1.7682926829268295,0.012,-0.005,1.011,-1.67,0.34,-1.75,0.67,-0.77,1.74,1265,1265,1500,1500,0.35,0,3,1,1
349,56299601,1008,127,1955,169,-37,-75,27,0.06201171875,0.95458984375,0.08251953125,-1.128048780487805,-2.2865853658536586,0.8231707317073171,-0.002,-0.014,1.002,-1.39,0.47,-1.84,0.67,-0.77,1.74,1265,1265,1500,1500,0.94,0,3,1,1
350,56300609,1008,158,1976,4,-35,-32,-4,0.0771484375,0.96484375,0.001953125,-1.0670731707317074,-0.9756097560975611,-0.12195121951219513,-0.002,-0.024,0.996,-0.89,0.53,-1.46,0.68,-0.77,1.74,1265,1265,1500,1500,1.18,0,3,1,1
351,56301617,1008,-48,2026,96,-60,1,-25,-0.0234375,0.9892578125,0.046875,-1.829268292682927,0.030487804878048783,-0.7621951219512195,-0.009,-0.017,0.995,-0.34,0.83,-0.87,0.68,-0.76,1.73,1265,1265,1500,1500,1.35,0,3,1,1
352,56302625,1008,-169,2023,183,-87,24,-42,-0.08251953125,0.98779296875,0.08935546875,-2.6524390243902443,0.7317073170731708,-1.2804878048780488,-0.022,-0.001,0.994,0.19,1.31,-0.25,0.68,-0.76,1.73,1265,1265,1500,1500,2.14,0,3,1,1
353,56303632,1007,-103,2004,119,-96,54,-46,-0.05029296875,0.978515625,0.05810546875,-2.9268292682926833,1.6463414634146343,-1.402439024390244,-0.027,0.006,0.991,0.58,1.72,0.46,0.68,-0.76,1.73,1265,1265,1500,1500,2.61,0,3,1,1
354,56304641,1009,41,1892,83,-74,68,-39,0.02001953125,0.923828125,0.04052734375,-2.25609756097561,2.073170731707317,-1.1890243902439026,-0.029,0.002,0.98,0.78,1.76,1.09,0.67,-0.76,1.74,1265,1265,1500,1500,2.64,0,3,1,1
355,56305649,1008,123,1810,-14,-55,71,-30,0.06005859375,0.8837890625,-0.0068359375,-1.676829268292683,2.164634146341464,-0.9146341463414634,-0.024,-0.007,0.965,0.81,1.6,1.53,0.67,-0.75,1.74,1265,1265,1500,1500,2.2,0,3,1,1
356,56306658,1009,13,2015,-163,-63,67,-18,0.00634765625,0.98388671875,-0.07958984375,-1.9207317073170733,2.0426829268292686,-0.5487804878048781,-0.007,-0.007,0.968,0.72,1.57,1.79,0.67,-0.75,1.74,1265,1265,1500,1500,1.23,0,3,1,1
357,56307666,1008,-145,2205,-288,-64,41,-10,-0.07080078125,1.07666015625,-0.140625,-1.9512195121951221,1.25,-0.30487804878048785,0.015,0.005,0.985,0.57,1.57,1.69,0.67,-0.75,1.74,1265,1265,1500,1500,0.99,0,3,1,1
358,56308673,1007,-114,2098,-305,-44,17,-7,-0.0556640625,1.0244140625,-0.14892578125,-1.3414634146341464,0.5182926829268293,-0.2134146341463415,0.036,0.013,0.991,0.44,1.36,1.39,0.67,-0.75,1.74,1265,1265,1500,1500,1.99,0,3,1,1
359,56309681,1008,114,1981,-74,-37,13,17,0.0556640625,0.96728515625,-0.0361328125,-1.128048780487805,0.39634146341463417,0.5182926829268293,0.036,0.002,0.987,0.11,1.15,1.14,0.67,-0.75,1.74,1265,1265,1500,1500,1.6,0,3,1,1
360,56310690,1009,283,2053,52,-40,11,71,0.13818359375,1.00244140625,0.025390625,-1.2195121951219514,0.3353658536585366,2.164634146341464,0.026,-0.019,0.99,-0.65,1.04,0.96,0.67,-0.75,1.74,1265,1265,1500,1500,0.94,0,3,1,1
361,56311697,1007,150,2199,-201,-19,-14,101,0.0732421875,1.07373046875,-0.09814453125,-0.5792682926829269,-0.426829268292683,3.079268292682927,0.038,-0.028,1.003,-1.47,0.75,0.58,0.67,-0.75,1.75,1265,1265,1500,1500,1.71,0,3,1,1
362,56312706,1009,-6,2196,-370,16,-65,73,-0.0029296875,1.072265625,-0.1806640625,0.48780487804878053,-1.981707317073171,2.225609756097561,0.06,-0.023,1.014,-1.73,0.2,-0.18,0.67,-0.75,1.75,1265,1265,1500,1500,2.75,0,3,1,1
363,56313713,1007,54,2061,-187,11,-102,38,0.0263671875,1.00634765625,-0.09130859375,0.3353658536585366,-3.1097560975609757,1.1585365853658538,0.065,-0.023,1.013,-1.54,-0.1,-1.07,0.68,-0.75,1.74,1265,1265,1500,1500,3.03,0,3,1,1
364,56314721,1008,70,2008,24,-24,-105,33,0.0341796875,0.98046875,0.01171875,-0.7317073170731708,-3.2012195121951224,1.0060975609756098,0.053,-0.025,1.007,-1.37,0.04,-1.7,0.68,-0.75,1.74,1265,1265,1500,1500,2.4,0,3,1,1
365,56315728,1007,-22,2000,82,-29,-83,34,-0.0107421875,0.9765625,0.0400390625,-0.8841463414634148,-2.530487804878049,1.0365853658536586,0.038,-0.019,1.002,-1.26,0.19,-1.89,0.68,-0.75,1.74,1265,1265,1500,1500,1.51,0,3,1,1
366,56316736,1008,-47,1971,166,-27,-46,24,-0.02294921875,0.96240234375,0.0810546875,-0.8231707317073171,-1.402439024390244,0.7317073170731708,0.019,-0.013,0.996,-1.09,0.27,-1.64,0.68,-0.75,1.74,1265,1265,1500,1500,0.37,0,3,1,1
367,56317744,1008,-54,2003,279,-47,-32,6,-0.0263671875,0.97802734375,0.13623046875,-1.4329268292682928,-0.9756097560975611,0.1829268292682927,-0.005,-0.006,0.993,-0.79,0.52,-1.33,0.68,-0.75,1.74,1265,1265,1500,1500,1.09,0,3,1,1
368,56318753,1009,-83,2062,124,-59,-11,-28,-0.04052734375,1.0068359375,0.060546875,-1.7987804878048783,-0.3353658536585366,-0.853658536585366,-0.013,0.0,0.995,-0.25,0.82,-0.91,0.68,-0.75,1.74,1265,1265,1500,1500,1.71,0,3,1,1
369,56319761,1008,5,1981,-76,-57,39,-62,0.00244140625,0.96728515625,-0.037109375,-1.7378048780487807,1.1890243902439026,-1.8902439024390245,-0.005,0.0,0.991,0.45,0.99,-0.12,0.68,-0.75,1.74,1265,1265,1500,1500,1.29,0,3,1,1
370,56320769,1008,133,1798,109,-80,73,-72,0.06494140625,0.8779296875,0.05322265625,-2.439024390243903,2.225609756097561,-2.1951219512195124,-0.013,-0.01,0.973,1.03,1.34,0.75,0.68,-0.75,1.74,1265,1265,1500,1500,1.54,0,3,1,1
371,56321778,1009,79,1851,282,-114,92,-58,0.03857421875,0.90380859375,0.1376953125,-3.4756097560975614,2.804878048780488,-1.7682926829268295,-0.033,-0.014,0.962,1.27,1.92,1.52,0.68,-0.74,1.74,1265,1265,1500,1500,2.72,0,3,1,1
372,56322786,1008,-135,2143,85,-113,110,-32,-0.06591796875,1.04638671875,0.04150390625,-3.4451219512195124,3.353658536585366,-0.9756097560975611,-0.034,-0.001,0.975,1.16,2.3,2.22,0.68,-0.74,1.74,1265,1265,1500,1500,2.82,0,3,1,1
373,56323793,1007,-224,2224,-132,-72,93,-7,-0.109375,1.0859375,-0.064453125,-2.1951219512195124,2.8353658536585367,-0.2134146341463415,-0.018,0.015,0.993,0.83,2.13,2.51,0.67,-0.74,1.74,1265,1265,1500,1500,2.42,0,3,1,1
374,56324800,1007,-37,2040,-149,-56,48,7,-0.01806640625,0.99609375,-0.07275390625,-1.707317073170732,1.4634146341463417,0.2134146341463415,-0.004,0.016,0.993,0.48,1.85,2.25,0.67,-0.73,1.75,1265,1265,1500,1500,1.88,0,3,1,1
375,56325808,1008,239,1998,-83,-84,30,19,0.11669921875,0.9755859375,-0.04052734375,-2.5609756097560976,0.9146341463414634,0.5792682926829269,0.002,-0.004,0.99,0.11,1.96,1.89,0.67,-0.73,1.75,1265,1265,1500,1500,0.69,0,3,1,1
376,56326816,1008,350,2124,-65,-90,25,36,0.1708984375,1.037109375,-0.03173828125,-2.7439024390243905,0.7621951219512195,1.0975609756097562,0.007,-0.031,0.998,-0.29,2.09,1.6,0.67,-0.73,1.75,1265,1265,1500,1500,1.15,0,3,1,1
377,56327825,1009,217,2131,-162,-44,8,49,0.10595703125,1.04052734375,-0.0791015625,-1.3414634146341464,0.24390243902439027,1.4939024390243905,0.018,-0.043,1.004,-0.7,1.7,1.23,0.68,-0.73,1.75,1265,1265,1500,1500,1.8,0,3,1,1
378,56328833,1008,11,2078,-291,-5,-9,59,0.00537109375,1.0146484375,-0.14208984375,-0.15243902439024393,-0.27439024390243905,1.7987804878048783,0.038,-0.037,1.006,-1.07,1.05,0.81,0.68,-0.73,1.75,1265,1265,1500,1500,2.03,0,3,1,1
379,56329841,1008,-127,2153,-301,-9,-45,68,-0.06201171875,1.05126953125,-0.14697265625,-0.27439024390243905,-1.3719512195121952,2.073170731707317,0.055,-0.021,1.013,-1.41,0.66,0.17,0.68,-0.73,1.75,1265,1265,1500,1500,2.46,0,3,1,1
380,56330850,1009,-86,2209,-174,-18,-90,71,-0.0419921875,1.07861328125,-0.0849609375,-0.5487804878048781,-2.7439024390243905,2.164634146341464,0.06,-0.011,1.023,-1.67,0.49,-0.71,0.68,-0.73,1.75,1265,1265,1500,1500,2.63,0,3,1,1
381,56331858,1008,132,2074,-70,-24,-105,66,0.064453125,1.0126953125,-0.0341796875,-0.7317073170731708,-3.2012195121951224,2.0121951219512195,0.056,-0.019,1.022,-1.79,0.44,-1.46,0.68,-0.73,1.75,1265,1265,1500,1500,2.44,0,3,1,1
382,56332867,1009,168,1901,-77,-18,-110,31,0.08203125,0.92822265625,-0.03759765625,-0.5487804878048781,-3.353658536585366,0.9451219512195123,0.053,-0.029,1.007,-1.51,0.34,-2.0,0.68,-0.73,1.75,1265,1265,1500,1500,2.49,0,3,1,1
383,56333875,1008,-14,1867,-24,-10,-113,-19,-0.0068359375,0.91162109375,-0.01171875,-0.30487804878048785,-3.4451219512195124,-0.5792682926829269,0.046,-0.023,0.992,-0.82,0.19,-2.4,0.69,-0.73,1.75,1265,1265,1500,1500,2.07,0,3,1,1
384,56334883,1008,-123,1948,123,-35,-67,-29,-0.06005859375,0.951171875,0.06005859375,-1.0670731707317074,-2.0426829268292686,-0.8841463414634148,0.029,-0.01,0.985,-0.25,0.35,-2.19,0.69,-0.73,1.74,1265,1265,1500,1500,0.99,0,3,1,1
385,56335892,1009,-218,2037,183,-61,-8,-19,-0.1064453125,0.99462890625,0.08935546875,-1.8597560975609757,-0.24390243902439027,-0.5792682926829269,0.01,0.008,0.986,0.01,0.72,-1.45,0.69,-0.73,1.74,1265,1265,1500,1500,1.16,0,3,1,1
386,56336900,1008,-174,1985,184,-66,8,-51,-0.0849609375,0.96923828125,0.08984375,-2.0121951219512195,0.24390243902439027,-1.5548780487804879,-0.005,0.02,0.984,0.52,1.02,-0.79,0.68,-0.73,1.74,1265,1265,1500,1500,2.13,0,3,1,1
387,56337907,1007,213,1833,200,-71,25,-79,0.10400390625,0.89501953125,0.09765625,-2.164634146341464,0.7621951219512195,-2.408536585365854,-0.019,0.0,0.97,1.14,1.27,-0.18,0.68,-0.73,1.74,1265,1265,1500,1500,2.03,0,3,1,1
388,56338916,1009,287,1780,164,-89,65,-57,0.14013671875,0.869140625,0.080078125,-2.713414634146342,1.981707317073171,-1.7378048780487807,-0.029,-0.021,0.954,1.33,1.62,0.62,0.68,-0.72,1.74,1265,1265,1500,1500,2.57,0,3,1,1
389,56339924,1008,-184,1857,33,-88,96,-43,-0.08984375,0.90673828125,0.01611328125,-2.682926829268293,2.9268292682926833,-1.3109756097560976,-0.027,-0.004,0.946,1.32,1.84,1.48,0.68,-0.72,1.74,1265,1265,1500,1500,2.42,0,3,1,1
390,56340932,1008,-369,2032,-125,-72,107,-52,-0.18017578125,0.9921875,-0.06103515625,-2.1951219512195124,3.26219512195122,-1.5853658536585367,-0.013,0.025,0.953,1.4,1.83,2.16,0.68,-0.72,1.74,1265,1265,1500,1500,2.67,0,3,1,1
391,56341941,1009,-148,2282,-44,-82,104,-33,-0.072265625,1.1142578125,-0.021484375,-2.5,3.1707317073170733,-1.0060975609756098,-0.007,0.032,0.979,1.26,1.92,2.58,0.67,-0.71,1.75,1265,1265,1500,1500,2.84,0,3,1,1
392,56342948,1007,69,2362,117,-87,81,0,0.03369140625,1.1533203125,0.05712890625,-2.6524390243902443,2.4695121951219514,0.0,-0.015,0.022,1.006,0.83,2.03,2.63,0.67,-0.71,1.75,1265,1265,1500,1500,2.51,0,3,1,1
393,56343957,1009,302,2157,-17,-69,44,11,0.1474609375,1.05322265625,-0.00830078125,-2.103658536585366,1.3414634146341464,0.3353658536585366,-0.011,-0.004,1.014,0.43,1.92,2.28,0.67,-0.71,1.75,1265,1265,1500,1500,1.44,0,3,1,1
394,56344965,1008,459,2002,-226,-52,9,24,0.22412109375,0.9775390625,-0.1103515625,-1.5853658536585367,0.27439024390243905,0.7317073170731708,0.007,-0.039,1.008,0.03,1.68,1.7,0.67,-0.71,1.75,1265,1265,1500,1500,1.59,0,3,1,1
395,56345974,1009,311,2112,-340,-31,-12,55,0.15185546875,1.03125,-0.166015625,-0.9451219512195123,-0.3658536585365854,1.676829268292683,0.032,-0.057,1.012,-0.54,1.3,1.09,0.67,-0.71,1.76,1265,1265,1500,1500,2.8,0,3,1,1
396,56346982,1008,-55,2258,-310,-18,-35,73,-0.02685546875,1.1025390625,-0.1513671875,-0.5487804878048781,-1.0670731707317074,2.225609756097561,0.051,-0.044,1.026,-1.11,0.91,0.46,0.68,-0.71,1.76,1265,1265,1500,1500,2.79,0,3,1,1
397,56347990,1008,-203,2239,-162,-27,-76,57,-0.09912109375,1.09326171875,-0.0791015625,-0.8231707317073171,-2.3170731707317076,1.7378048780487807,0.055,-0.021,1.036,-1.32,0.75,-0.38,0.68,-0.71,1.76,1265,1265,1500,1500,2.42,0,3,1,1
398,56348998,1008,49,2117,-147,-30,-118,38,0.02392578125,1.03369140625,-0.07177734375,-0.9146341463414634,-3.5975609756097566,1.1585365853658538,0.058,-0.021,1.036,-1.27,0.67,-1.37,0.68,-0.71,1.75,1265,1265,1500,1500,2.56,0,3,1,1
399,56350006,1008,247,1966,-73,-19,-132,41,0.12060546875,0.9599609375,-0.03564453125,-0.5792682926829269,-4.024390243902439,1.25,0.054,-0.037,1.024,-1.27,0.51,-2.17,0.68,-0.71,1.75,1265,1265,1500,1500,2.73,0,3,1,1
400,56351015,1009,120,1859,92,-31,-117,43,0.05859375,0.90771484375,0.044921875,-0.9451219512195123,-3.5670731707317076,1.3109756097560976,0.038,-0.04,1.005,-1.29,0.52,-2.55,0.68,-0.71,1.75,1265,1265,1500,1500,2.22,0,3,1,1
401,56352023,1008,-86,1860,15,-56,-106,21,-0.0419921875,0.908203125,0.00732421875,-1.707317073170732,-3.231707317073171,0.6402439024390244,0.031,-0.027,0.99,-1.08,0.78,-2.69,0.69,-0.71,1.75,1265,1265,1500,1500,1.44,0,3,1,1
402,56353031,1008,-220,1944,-36,-61,-82,-15,-0.107421875,0.94921875,-0.017578125,-1.8597560975609757,-2.5,-0.4573170731707317,0.029,-0.006,0.983,-0.57,1.01,-2.54,0.69,-0.71,1.74,1265,1265,1500,1500,1.05,0,3,1,1
403,56354040,1009,-204,2014,137,-57,-17,-48,-0.099609375,0.9833984375,0.06689453125,-1.7378048780487807,-0.5182926829268293,-1.4634146341463417,0.014,0.01,0.983,0.09,1.12,-1.77,0.69,-0.71,1.74,1265,1265,1500,1500,1.31,0,3,1,1
404,56355048,1008,-2,1975,259,-74,47,-64,-0.0009765625,0.96435546875,0.12646484375,-2.25609756097561,1.4329268292682928,-1.9512195121951221,-0.008,0.009,0.98,0.71,1.37,-0.61,0.68,-0.7,1.74,1265,1265,1500,1500,1.7,0,3,1,1
405,56356054,1006,155,1855,194,-98,58,-67,0.07568359375,0.90576171875,0.0947265625,-2.987804878048781,1.7682926829268295,-2.0426829268292686,-0.021,-0.004,0.968,1.15,1.77,0.26,0.68,-0.7,1.74,1265,1265,1500,1500,2.05,0,3,1,1
406,56357062,1008,123,1744,48,-98,65,-70,0.06005859375,0.8515625,0.0234375,-2.987804878048781,1.981707317073171,-2.1341463414634148,-0.022,-0.013,0.95,1.47,2.05,0.92,0.68,-0.7,1.74,1265,1265,1500,1500,2.04,0,3,1,1
407,56358070,1008,-30,1794,25,-89,104,-62,-0.0146484375,0.8759765625,0.01220703125,-2.713414634146342,3.1707317073170733,-1.8902439024390245,-0.02,-0.008,0.938,1.6,2.14,1.76,0.68,-0.7,1.74,1265,1265,1500,1500,1.96,0,3,1,1
408,56359078,1008,-274,2040,-8,-83,135,-48,-0.1337890625,0.99609375,-0.00390625,-2.530487804878049,4.115853658536586,-1.4634146341463417,-0.016,0.013,0.947,1.55,2.13,2.63,0.68,-0.69,1.75,1265,1265,1500,1500,2.28,0,3,1,1
409,56360087,1009,-406,2260,-134,-81,136,-45,-0.1982421875,1.103515625,-0.0654296875,-2.4695121951219514,4.146341463414634,-1.3719512195121952,-0.003,0.043,0.972,1.48,2.11,3.23,0.67,-0.69,1.75,1265,1265,1500,1500,3.34,0,3,1,1
410,56361095,1008,-171,2306,-85,-88,109,-30,-0.08349609375,1.1259765625,-0.04150390625,-2.682926829268293,3.3231707317073176,-0.9146341463414634,0.003,0.049,0.996,1.28,2.17,3.34,0.67,-0.69,1.75,1265,1265,1500,1500,3.55,0,3,1,1
411,56362103,1008,213,2187,-30,-79,55,5,0.10400390625,1.06787109375,-0.0146484375,-2.408536585365854,1.676829268292683,0.15243902439024393,0.005,0.025,1.007,0.79,2.12,2.87,0.67,-0.69,1.76,1265,1265,1500,1500,2.14,0,3,1,1
412,56363112,1009,429,2070,-208,-52,8,33,0.20947265625,1.0107421875,-0.1015625,-1.5853658536585367,0.24390243902439027,1.0060975609756098,0.02,-0.012,1.008,0.18,1.8,2.08,0.67,-0.68,1.76,1265,1265,1500,1500,0.47,0,3,1,1
413,56364120,1008,498,2124,-346,-34,-19,44,0.2431640625,1.037109375,-0.1689453125,-1.0365853658536586,-0.5792682926829269,1.3414634146341464,0.044,-0.048,1.012,-0.33,1.41,1.27,0.67,-0.68,1.76,1265,1265,1500,1500,2.75,0,3,1,1
414,56365128,1008,390,2227,-226,-32,-40,56,0.1904296875,1.08740234375,-0.1103515625,-0.9756097560975611,-1.2195121951219514,1.707317073170732,0.054,-0.071,1.024,-0.79,1.13,0.53,0.67,-0.68,1.76,1265,1265,1500,1500,4.05,0,3,1,1
415,56366137,1009,31,2299,-50,-47,-61,69,0.01513671875,1.12255859375,-0.0244140625,-1.4329268292682928,-1.8597560975609757,2.103658536585366,0.049,-0.062,1.04,-1.24,1.1,-0.18,0.68,-0.68,1.76,1265,1265,1500,1500,3.43,0,3,1,1
416,56367145,1008,-212,2274,-68,-41,-105,52,-0.103515625,1.1103515625,-0.033203125,-1.25,-3.2012195121951224,1.5853658536585367,0.047,-0.036,1.051,-1.36,1.02,-1.1,0.68,-0.68,1.76,1265,1265,1500,1500,2.27,0,3,1,1
417,56368153,1008,-37,1994,-66,-20,-166,22,-0.01806640625,0.9736328125,-0.0322265625,-0.6097560975609757,-5.060975609756098,0.6707317073170732,0.044,-0.027,1.039,-1.13,0.75,-2.34,0.68,-0.68,1.76,1265,1265,1500,1500,1.96,0,3,1,1
418,56369161,1008,179,1749,124,-38,-172,19,0.08740234375,0.85400390625,0.060546875,-1.1585365853658538,-5.2439024390243905,0.5792682926829269,0.028,-0.036,1.009,-0.95,0.75,-3.22,0.68,-0.68,1.75,1265,1265,1500,1500,1.67,0,3,1,1
419,56370169,1008,104,1808,158,-77,-124,34,0.05078125,0.8828125,0.0771484375,-2.347560975609756,-3.780487804878049,1.0365853658536586,0.011,-0.039,0.989,-0.99,1.15,-3.32,0.68,-0.68,1.75,1265,1265,1500,1500,1.58,0,3,1,1
420,56371178,1009,-134,1900,31,-90,-76,23,-0.0654296875,0.927734375,0.01513671875,-2.7439024390243905,-2.3170731707317076,0.701219512195122,0.007,-0.022,0.979,-0.9,1.55,-2.89,0.68,-0.68,1.75,1265,1265,1500,1500,0.68,0,3,1,1
421,56372186,1008,-258,1966,62,-70,-42,-26,-0.1259765625,0.9599609375,0.0302734375,-2.1341463414634148,-1.2804878048780488,-0.7926829268292683,0.001,0.001,0.976,-0.34,1.61,-2.27,0.68,-0.68,1.75,1265,1265,1500,1500,0.96,0,3,1,1
422,56373194,1008,-116,2043,102,-55,-17,-76,-0.056640625,0.99755859375,0.0498046875,-1.676829268292683,-0.5182926829268293,-2.3170731707317076,-0.006,0.009,0.979,0.54,1.5,-1.59,0.68,-0.68,1.74,1265,1265,1500,1500,1.66,0,3,1,1
423,56374203,1009,96,1928,152,-75,17,-93,0.046875,0.94140625,0.07421875,-2.2865853658536586,0.5182926829268293,-2.8353658536585367,-0.017,0.0,0.973,1.3,1.63,-0.8,0.68,-0.67,1.74,1265,1265,1500,1500,1.86,0,3,1,1
424,56375211,1008,157,1746,208,-102,62,-78,0.07666015625,0.8525390625,0.1015625,-3.1097560975609757,1.8902439024390245,-2.378048780487805,-0.03,-0.011,0.954,1.65,1.99,0.18,0.68,-0.67,1.74,1265,1265,1500,1500,2.53,0,3,1,1
425,56376220,1009,27,1798,23,-101,108,-60,0.01318359375,0.8779296875,0.01123046875,-3.079268292682927,3.2926829268292686,-1.829268292682927,-0.027,-0.011,0.942,1.7,2.22,1.31,0.68,-0.67,1.74,1265,1265,1500,1500,2.36,0,3,1,1
426,56377228,1008,-198,2007,-81,-77,130,-53,-0.0966796875,0.97998046875,-0.03955078125,-2.347560975609756,3.963414634146342,-1.6158536585365855,-0.017,0.005,0.948,1.66,2.13,2.28,0.68,-0.66,1.75,1265,1265,1500,1500,1.98,0,3,1,1
427,56378236,1008,-272,2144,-96,-51,127,-51,-0.1328125,1.046875,-0.046875,-1.5548780487804879,3.8719512195121957,-1.5548780487804879,-0.006,0.025,0.964,1.62,1.8,2.9,0.67,-0.66,1.75,1265,1265,1500,1500,2.45,0,3,1,1
428,56379243,1007,-174,2233,-270,-43,113,-42,-0.0849609375,1.09033203125,-0.1318359375,-1.3109756097560976,3.4451219512195124,-1.2804878048780488,0.015,0.035,0.984,1.5,1.51,3.17,0.67,-0.66,1.75,1265,1265,1500,1500,2.72,0,3,1,1
429,56380250,1007,-2,2287,-232,-57,69,-23,-0.0009765625,1.11669921875,-0.11328125,-1.7378048780487807,2.103658536585366,-0.701219512195122,0.03,0.029,1.005,1.22,1.45,2.9,0.67,-0.66,1.76,1265,1265,1500,1500,2.6,0,3,1,1
430,56381257,1007,248,2165,-41,-70,21,5,0.12109375,1.05712890625,-0.02001953125,-2.1341463414634148,0.6402439024390244,0.15243902439024393,0.028,0.005,1.013,0.75,1.54,2.23,0.67,-0.66,1.76,1265,1265,1500,1500,1.39,0,3,1,1
431,56382266,1009,438,2027,-142,-44,-3,36,0.2138671875,0.98974609375,-0.0693359375,-1.3414634146341464,-0.09146341463414635,1.0975609756097562,0.035,-0.029,1.009,0.13,1.34,1.54,0.67,-0.66,1.76,1265,1265,1500,1500,1.66,0,3,1,1
432,56383274,1008,391,2124,-264,-8,-21,61,0.19091796875,1.037109375,-0.12890625,-0.24390243902439027,-0.6402439024390244,1.8597560975609757,0.05,-0.054,1.013,-0.54,0.84,0.89,0.67,-0.66,1.76,1265,1265,1500,1500,3.25,0,3,1,1
433,56384280,1006,134,2301,-82,-18,-42,70,0.0654296875,1.12353515625,-0.0400390625,-0.5487804878048781,-1.2804878048780488,2.1341463414634148,0.048,-0.056,1.031,-1.08,0.61,0.25,0.67,-0.66,1.76,1265,1265,1500,1500,3.19,0,3,1,1
434,56385288,1008,-91,2292,80,-59,-84,57,-0.04443359375,1.119140625,0.0390625,-1.7987804878048783,-2.5609756097560976,1.7378048780487807,0.034,-0.04,1.045,-1.3,0.87,-0.59,0.67,-0.66,1.76,1265,1265,1500,1500,1.97,0,3,1,1
435,56386296,1008,-40,2064,0,-60,-132,30,-0.01953125,1.0078125,0.0,-1.829268292682927,-4.024390243902439,0.9146341463414634,0.029,-0.03,1.039,-1.18,1.06,-1.65,0.67,-0.66,1.76,1265,1265,1500,1500,1.39,0,3,1,1
436,56387303,1007,130,1812,-9,-41,-143,12,0.0634765625,0.884765625,-0.00439453125,-1.25,-4.359756097560976,0.3658536585365854,0.025,-0.036,1.014,-0.91,0.99,-2.47,0.68,-0.66,1.76,1265,1265,1500,1500,1.55,0,3,1,1
437,56388312,1009,110,1793,175,-63,-110,8,0.0537109375,0.87548828125,0.08544921875,-1.9207317073170733,-3.353658536585366,0.24390243902439027,0.007,-0.038,0.992,-0.69,1.17,-2.68,0.68,-0.66,1.75,1265,1265,1500,1500,1.57,0,3,1,1
438,56389320,1008,-40,1932,205,-98,-51,14,-0.01953125,0.943359375,0.10009765625,-2.987804878048781,-1.5548780487804879,0.426829268292683,-0.009,-0.029,0.984,-0.61,1.64,-2.21,0.68,-0.65,1.75,1265,1265,1500,1500,1.59,0,3,1,1
439,56390327,1007,-214,1983,99,-102,-11,8,-0.1044921875,0.96826171875,0.04833984375,-3.1097560975609757,-0.3353658536585366,0.24390243902439027,-0.015,-0.008,0.982,-0.49,2.0,-1.5,0.68,-0.65,1.75,1265,1265,1500,1500,1.57,0,3,1,1
440,56391336,1009,-279,2009,82,-73,-5,-35,-0.13623046875,0.98095703125,0.0400390625,-2.225609756097561,-0.15243902439024393,-1.0670731707317074,-0.019,0.014,0.982,0.01,1.94,-0.96,0.68,-0.65,1.75,1265,1265,1500,1500,2.35,0,3,1,1
441,56392344,1008,-82,1983,44,-51,1,-91,-0.0400390625,0.96826171875,0.021484375,-1.5548780487804879,0.030487804878048783,-2.774390243902439,-0.019,0.018,0.979,0.93,1.68,-0.54,0.68,-0.64,1.75,1265,1265,1500,1500,2.53,0,3,1,1
442,56393352,1008,179,1774,43,-58,34,-112,0.08740234375,0.8662109375,0.02099609375,-1.7682926829268295,1.0365853658536586,-3.414634146341464,-0.019,0.001,0.961,1.75,1.58,0.07,0.67,-0.64,1.75,1265,1265,1500,1500,2.0,0,3,1,1
443,56394361,1009,195,1677,45,-78,84,-85,0.09521484375,0.81884765625,0.02197265625,-2.378048780487805,2.5609756097560976,-2.5914634146341466,-0.02,-0.013,0.939,2.02,1.71,0.99,0.67,-0.64,1.75,1265,1265,1500,1500,1.89,0,3,1,1
444,56395369,1008,-101,1958,-92,-85,117,-45,-0.04931640625,0.9560546875,-0.044921875,-2.5914634146341466,3.5670731707317076,-1.3719512195121952,-0.009,-0.003,0.941,1.8,1.87,1.94,0.67,-0.64,1.75,1265,1265,1500,1500,1.33,0,3,1,1
445,56396377,1008,-289,2247,-186,-58,113,-31,-0.14111328125,1.09716796875,-0.0908203125,-1.7682926829268295,3.4451219512195124,-0.9451219512195123,0.006,0.019,0.966,1.5,1.7,2.53,0.67,-0.64,1.75,1265,1265,1500,1500,1.84,0,3,1,1
446,56397386,1009,-144,2261,-237,-21,85,-33,-0.0703125,1.10400390625,-0.11572265625,-0.6402439024390244,2.5914634146341466,-1.0060975609756098,0.023,0.027,0.988,1.33,1.21,2.63,0.67,-0.63,1.76,1265,1265,1500,1500,2.37,0,3,1,1
447,56398394,1008,22,2211,-269,-8,44,-35,0.0107421875,1.07958984375,-0.13134765625,-0.24390243902439027,1.3414634146341464,-1.0670731707317074,0.04,0.021,1.002,1.23,0.76,2.29,0.66,-0.63,1.76,1265,1265,1500,1500,2.52,0,3,1,1
448,56399401,1007,154,2133,-176,-32,6,-16,0.0751953125,1.04150390625,-0.0859375,-0.9756097560975611,0.1829268292682927,-0.48780487804878053,0.047,0.006,1.008,0.97,0.7,1.67,0.66,-0.63,1.76,1265,1265,1500,1500,2.3,0,3,1,1
449,56400408,1007,275,2034,-54,-63,-21,21,0.13427734375,0.9931640625,-0.0263671875,-1.9207317073170733,-0.6402439024390244,0.6402439024390244,0.044,-0.016,1.006,0.43,0.97,0.98,0.66,-0.63,1.76,1265,1265,1500,1500,1.9,0,3,1,1
450,56401416,1008,361,2059,-5,-51,-34,50,0.17626953125,1.00537109375,-0.00244140625,-1.5548780487804879,-1.0365853658536586,1.524390243902439,0.037,-0.041,1.006,-0.23,1.03,0.39,0.66,-0.63,1.76,1265,1265,1500,1500,2.27,0,3,1,1
451,56402424,1008,300,2205,-10,-27,-28,73,0.146484375,1.07666015625,-0.0048828125,-0.8231707317073171,-0.853658536585366,2.225609756097561,0.032,-0.058,1.017,-0.9,0.83,0.06,0.66,-0.63,1.76,1265,1265,1500,1500,2.86,0,3,1,1
452,56403433,1009,-6,2296,-26,-16,-45,68,-0.0029296875,1.12109375,-0.0126953125,-0.48780487804878053,-1.3719512195121952,2.073170731707317,0.029,-0.048,1.033,-1.3,0.58,-0.32,0.67,-0.63,1.76,1265,1265,1500,1500,2.24,0,3,1,1
453,56404441,1008,-115,2147,-12,-23,-88,23,-0.05615234375,1.04833984375,-0.005859375,-0.701219512195122,-2.682926829268293,0.701219512195122,0.025,-0.031,1.036,-1.1,0.49,-1.02,0.67,-0.63,1.76,1265,1265,1500,1500,1.34,0,3,1,1
454,56405449,1008,122,1908,122,-62,-111,-3,0.0595703125,0.931640625,0.0595703125,-1.8902439024390245,-3.3841463414634148,-0.09146341463414635,0.012,-0.036,1.019,-0.71,0.82,-1.72,0.67,-0.63,1.76,1265,1265,1500,1500,1.36,0,3,1,1
455,56406458,1009,154,1795,284,-96,-92,14,0.0751953125,0.87646484375,0.138671875,-2.9268292682926833,-2.804878048780488,0.426829268292683,-0.011,-0.042,0.996,-0.62,1.39,-2.0,0.67,-0.63,1.76,1265,1265,1500,1500,2.2,0,3,1,1
456,56407466,1008,-123,1883,251,-92,-43,14,-0.06005859375,0.91943359375,0.12255859375,-2.804878048780488,-1.3109756097560976,0.426829268292683,-0.029,-0.026,0.984,-0.56,1.73,-1.68,0.67,-0.63,1.76,1265,1265,1500,1500,2.49,0,3,1,1
457,56408475,1009,-259,2062,115,-63,-2,-23,-0.12646484375,1.0068359375,0.05615234375,-1.9207317073170733,-0.06097560975609757,-0.701219512195122,-0.033,-0.001,0.988,-0.14,1.66,-1.05,0.67,-0.63,1.75,1266,1266,1500,1500,2.64,0,3,1,1
458,56409482,1007,-158,2017,87,-56,24,-47,-0.0771484375,0.98486328125,0.04248046875,-1.707317073170732,0.7317073170731708,-1.4329268292682928,-0.035,0.01,0.987,0.37,1.54,-0.36,0.67,-0.62,1.75,1266,1266,1500,1500,2.95,0,3,1,1
459,56410491,1009,-84,1930,59,-68,45,-46,-0.041015625,0.9423828125,0.02880859375,-2.073170731707317,1.3719512195121952,-1.402439024390244,-0.034,0.015,0.98,0.71,1.59,0.3,0.67,-0.62,1.75,1266,1266,1500,1500,3.05,0,3,1,1
460,56411499,1008,3,1968,-67,-61,50,-65,0.00146484375,0.9609375,-0.03271484375,-1.8597560975609757,1.524390243902439,-1.981707317073171,-0.023,0.012,0.977,1.12,1.54,0.79,0.67,-0.62,1.76,1266,1266,1500,1500,2.45,0,3,1,1
461,56412507,1008,206,1885,-146,-46,61,-90,0.1005859375,0.92041015625,-0.0712890625,-1.402439024390244,1.8597560975609757,-2.7439024390243905,-0.008,-0.005,0.968,1.66,1.36,1.23,0.67,-0.61,1.76,1266,1266,1500,1500,1.17,0,3,1,1
462,56413515,1008,144,1881,-126,-40,96,-79,0.0703125,0.91845703125,-0.0615234375,-1.2195121951219514,2.9268292682926833,-2.408536585365854,0.002,-0.015,0.96,1.9,1.18,1.89,0.66,-0.61,1.76,1266,1266,1500,1500,0.52,0,3,1,1
463,56414524,1009,-220,2083,-109,-36,125,-47,-0.107421875,1.01708984375,-0.05322265625,-1.0975609756097562,3.810975609756098,-1.4329268292682928,0.01,0.003,0.969,1.73,1.02,2.62,0.66,-0.61,1.76,1266,1266,1500,1500,0.9,0,3,1,1
464,56415532,1008,-317,2188,-162,-37,102,-23,-0.15478515625,1.068359375,-0.0791015625,-1.128048780487805,3.1097560975609757,-0.701219512195122,0.021,0.027,0.985,1.38,0.92,2.87,0.66,-0.61,1.76,1266,1266,1500,1500,2.37,0,3,1,1
465,56416540,1008,3,2154,-246,-29,29,-7,0.00146484375,1.0517578125,-0.1201171875,-0.8841463414634148,0.8841463414634148,-0.2134146341463415,0.037,0.023,0.995,0.98,0.78,2.29,0.66,-0.61,1.77,1266,1266,1500,1500,2.51,0,3,1,1
466,56417549,1009,347,2136,-322,12,-22,8,0.16943359375,1.04296875,-0.1572265625,0.3658536585365854,-0.6707317073170732,0.24390243902439027,0.056,-0.007,1.003,0.56,0.26,1.38,0.66,-0.61,1.77,1266,1266,1500,1500,2.6,0,3,1,1
467,56418556,1007,416,2120,-243,30,-30,12,0.203125,1.03515625,-0.11865234375,0.9146341463414634,-0.9146341463414634,0.3658536585365854,0.066,-0.038,1.008,0.24,-0.26,0.7,0.66,-0.61,1.77,1265,1265,1500,1500,3.48,0,3,1,1
468,56419565,1009,305,2056,6,-6,-35,12,0.14892578125,1.00390625,0.0029296875,-0.1829268292682927,-1.0670731707317074,0.3658536585365854,0.055,-0.055,1.007,0.03,-0.24,0.19,0.66,-0.62,1.77,1265,1265,1500,1500,3.55,0,3,1,1
469,56420572,1007,135,2078,106,-45,-38,33,0.06591796875,1.0146484375,0.0517578125,-1.3719512195121952,-1.1585365853658538,1.0060975609756098,0.038,-0.057,1.008,-0.31,0.16,-0.16,0.66,-0.62,1.77,1265,1265,1500,1500,3.02,0,3,1,1
470,56421580,1008,-128,2182,48,-35,-55,63,-0.0625,1.0654296875,0.0234375,-1.0670731707317074,-1.676829268292683,1.9207317073170733,0.028,-0.038,1.017,-0.86,0.33,-0.58,0.66,-0.62,1.77,1265,1265,1500,1500,1.79,0,3,1,1
471,56422587,1007,-224,2113,90,5,-94,48,-0.109375,1.03173828125,0.0439453125,0.15243902439024393,-2.8658536585365857,1.4634146341463417,0.016,-0.015,1.019,-1.07,0.03,-1.26,0.66,-0.62,1.77,1265,1265,1500,1500,0.37,0,3,1,1
472,56423596,1009,67,1930,124,2,-109,3,0.03271484375,0.9423828125,0.060546875,0.06097560975609757,-3.3231707317073176,0.09146341463414635,0.004,-0.017,1.007,-0.74,-0.12,-1.86,0.66,-0.62,1.76,1265,1265,1500,1500,0.49,0,3,1,1
473,56424604,1008,260,1907,67,-43,-73,-18,0.126953125,0.93115234375,0.03271484375,-1.3109756097560976,-2.225609756097561,-0.5487804878048781,-0.001,-0.035,0.995,-0.32,0.22,-1.89,0.66,-0.62,1.76,1265,1265,1500,1500,1.52,0,3,1,1
474,56425612,1008,0,1959,161,-75,-18,-21,0.0,0.95654296875,0.07861328125,-2.2865853658536586,-0.5487804878048781,-0.6402439024390244,-0.013,-0.029,0.989,0.0,0.78,-1.35,0.67,-0.61,1.76,1265,1265,1500,1500,1.74,0,3,1,1
475,56426620,1008,-279,2000,300,-83,17,-35,-0.13623046875,0.9765625,0.146484375,-2.530487804878049,0.5182926829268293,-1.0670731707317074,-0.034,-0.003,0.987,0.34,1.23,-0.64,0.66,-0.61,1.76,1265,1265,1500,1500,2.67,0,3,1,1
476,56427629,1009,-234,2080,191,-77,18,-52,-0.1142578125,1.015625,0.09326171875,-2.347560975609756,0.5487804878048781,-1.5853658536585367,-0.043,0.015,0.991,0.75,1.47,-0.15,0.66,-0.61,1.76,1265,1265,1500,1500,3.51,0,3,1,1
477,56428637,1008,-43,2037,18,-60,30,-61,-0.02099609375,0.99462890625,0.0087890625,-1.829268292682927,0.9146341463414634,-1.8597560975609757,-0.038,0.016,0.992,1.11,1.46,0.28,0.66,-0.61,1.76,1265,1265,1500,1500,3.25,0,3,1,1
478,56429646,1009,95,1877,-1,-43,73,-69,0.04638671875,0.91650390625,-0.00048828125,-1.3109756097560976,2.225609756097561,-2.103658536585366,-0.032,0.006,0.98,1.43,1.27,1.02,0.66,-0.6,1.76,1265,1265,1500,1500,2.7,0,3,1,1
479,56430654,1008,170,1891,-8,-51,99,-71,0.0830078125,0.92333984375,-0.00390625,-1.5548780487804879,3.0182926829268295,-2.164634146341464,-0.026,-0.007,0.971,1.67,1.23,1.77,0.66,-0.6,1.76,1265,1265,1500,1500,2.18,0,3,1,1
480,56431662,1008,100,2060,-141,-76,91,-56,0.048828125,1.005859375,-0.06884765625,-2.3170731707317076,2.774390243902439,-1.707317073170732,-0.011,-0.014,0.976,1.67,1.46,2.19,0.66,-0.6,1.77,1265,1265,1500,1500,1.28,0,3,1,1
481,56432671,1009,-119,2114,-291,-53,66,-40,-0.05810546875,1.0322265625,-0.14208984375,-1.6158536585365855,2.0121951219512195,-1.2195121951219514,0.012,-0.002,0.985,1.51,1.38,2.22,0.65,-0.6,1.77,1265,1265,1500,1500,0.51,0,3,1,1
482,56433678,1007,-150,2063,-326,8,42,-31,-0.0732421875,1.00732421875,-0.1591796875,0.24390243902439027,1.2804878048780488,-0.9451219512195123,0.036,0.009,0.988,1.31,0.7,1.99,0.65,-0.6,1.77,1265,1265,1500,1500,1.91,0,3,1,1
483,56434685,1007,72,2068,-199,12,19,4,0.03515625,1.009765625,-0.09716796875,0.3658536585365854,0.5792682926829269,0.12195121951219513,0.045,0.002,0.992,0.83,0.21,1.6,0.65,-0.6,1.77,1265,1265,1500,1500,2.18,0,3,1,1
484,56435693,1008,182,2104,-33,-30,-14,52,0.0888671875,1.02734375,-0.01611328125,-0.9146341463414634,-0.426829268292683,1.5853658536585367,0.041,-0.012,0.997,0.01,0.31,1.01,0.65,-0.6,1.77,1265,1265,1500,1500,1.75,0,3,1,1
485,56436701,1008,121,2114,-115,-23,-42,64,0.05908203125,1.0322265625,-0.05615234375,-0.701219512195122,-1.2804878048780488,1.9512195121951221,0.043,-0.019,1.003,-0.64,0.31,0.33,0.65,-0.6,1.77,1266,1266,1500,1500,1.93,0,3,1,1
486,56437710,1009,92,2119,-221,23,-73,41,0.044921875,1.03466796875,-0.10791015625,0.701219512195122,-2.225609756097561,1.25,0.053,-0.023,1.008,-0.85,-0.15,-0.43,0.65,-0.6,1.77,1266,1266,1500,1500,2.54,0,3,1,1
487,56438718,1008,79,2127,-130,34,-91,18,0.03857421875,1.03857421875,-0.0634765625,1.0365853658536586,-2.774390243902439,0.5487804878048781,0.055,-0.026,1.013,-0.76,-0.58,-1.13,0.65,-0.6,1.77,1266,1266,1500,1500,2.64,0,3,1,1
488,56439727,1009,-1,2089,-50,9,-89,5,-0.00048828125,1.02001953125,-0.0244140625,0.27439024390243905,-2.713414634146342,0.15243902439024393,0.05,-0.021,1.014,-0.56,-0.61,-1.57,0.66,-0.61,1.77,1266,1266,1500,1500,2.3,0,3,1,1
489,56440735,1008,-43,1991,125,-19,-85,-6,-0.02099609375,0.97216796875,0.06103515625,-0.5792682926829269,-2.5914634146341466,-0.1829268292682927,0.032,-0.015,1.007,-0.32,-0.34,-1.82,0.66,-0.61,1.77,1266,1266,1500,1500,1.26,0,3,1,1
490,56441743,1008,18,1937,341,-43,-58,-7,0.0087890625,0.94580078125,0.16650390625,-1.3109756097560976,-1.7682926829268295,-0.2134146341463415,0.001,-0.014,0.997,-0.14,0.07,-1.71,0.66,-0.61,1.77,1266,1266,1500,1500,0.56,0,3,1,1
491,56442752,1009,23,1955,267,-50,-20,-10,0.01123046875,0.95458984375,0.13037109375,-1.524390243902439,-0.6097560975609757,-0.30487804878048785,-0.019,-0.013,0.99,0.0,0.42,-1.26,0.66,-0.6,1.77,1266,1266,1500,1500,1.75,0,3,1,1
492,56443760,1008,-86,1993,30,-29,13,-46,-0.0419921875,0.97314453125,0.0146484375,-0.8841463414634148,0.39634146341463417,-1.402439024390244,-0.018,-0.004,0.988,0.45,0.44,-0.61,0.66,-0.6,1.76,1266,1266,1500,1500,1.75,0,3,1,1
493,56444768,1008,-102,2005,-44,-23,43,-96,-0.0498046875,0.97900390625,-0.021484375,-0.701219512195122,1.3109756097560976,-2.9268292682926833,-0.012,0.003,0.986,1.27,0.4,0.11,0.65,-0.6,1.77,1266,1266,1500,1500,1.6,0,3,1,1
494,56445777,1009,43,1946,111,-62,54,-101,0.02099609375,0.9501953125,0.05419921875,-1.8902439024390245,1.6463414634146343,-3.079268292682927,-0.019,0.0,0.98,1.87,0.76,0.71,0.65,-0.6,1.77,1266,1266,1500,1500,1.84,0,3,1,1
495,56446785,1008,90,1946,294,-108,66,-60,0.0439453125,0.9501953125,0.1435546875,-3.2926829268292686,2.0121951219512195,-1.829268292682927,-0.038,-0.007,0.975,1.85,1.48,1.23,0.65,-0.6,1.77,1266,1266,1500,1500,2.89,0,3,1,1
496,56447793,1008,-17,2052,163,-98,83,-25,-0.00830078125,1.001953125,0.07958984375,-2.987804878048781,2.530487804878049,-0.7621951219512195,-0.045,-0.004,0.98,1.48,1.85,1.75,0.65,-0.59,1.77,1266,1266,1500,1500,3.27,0,3,1,1
497,56448802,1009,-44,2081,-158,-40,77,-19,-0.021484375,1.01611328125,-0.0771484375,-1.2195121951219514,2.347560975609756,-0.5792682926829269,-0.025,0.0,0.985,1.17,1.5,2.04,0.65,-0.59,1.77,1265,1265,1500,1500,2.19,0,3,1,1
498,56449810,1008,53,2082,-215,-15,53,-20,0.02587890625,1.0166015625,-0.10498046875,-0.4573170731707317,1.6158536585365855,-0.6097560975609757,-0.005,-0.004,0.99,0.97,1.02,1.98,0.64,-0.59,1.77,1265,1265,1500,1500,0.97,0,3,1,1
499,56450819,1009,140,2117,-184,-36,29,-9,0.068359375,1.03369140625,-0.08984375,-1.0975609756097562,0.8841463414634148,-0.27439024390243905,0.009,-0.014,0.997,0.73,0.91,1.7,0.64,-0.59,1.77,1265,1265,1500,1500,0.19,0,3,1,1
500,56451827,1008,166,2082,-240,-44,-2,17,0.0810546875,1.0166015625,-0.1171875,-1.3414634146341464,-0.06097560975609757,0.5182926829268293,0.026,-0.025,1.0,0.3,0.92,1.2,0.64,-0.59,1.78,1265,1265,1500,1500,1.23,0,3,1,1
501,56452835,1008,79,2058,-151,-25,-45,48,0.03857421875,1.0048828125,-0.07373046875,-0.7621951219512195,-1.3719512195121952,1.4634146341463417,0.034,-0.027,1.001,-0.29,0.74,0.42,0.64,-0.59,1.78,1265,1265,1500,1500,1.64,0,3,1,1
502,56453844,1009,-52,2099,-53,2,-64,58,-0.025390625,1.02490234375,-0.02587890625,0.06097560975609757,-1.9512195121951221,1.7682926829268295,0.033,-0.018,1.004,-0.79,0.34,-0.28,0.65,-0.59,1.78,1265,1265,1500,1500,1.35,0,3,1,1
503,56454850,1006,-17,2135,-170,25,-58,59,-0.00830078125,1.04248046875,-0.0830078125,0.7621951219512195,-1.7682926829268295,1.7987804878048783,0.04,-0.014,1.01,-1.13,-0.16,-0.69,0.65,-0.59,1.78,1265,1265,1500,1500,1.73,0,3,1,1
504,56455859,1009,58,2111,-223,34,-72,52,0.0283203125,1.03076171875,-0.10888671875,1.0365853658536586,-2.1951219512195124,1.5853658536585367,0.051,-0.016,1.014,-1.29,-0.58,-1.1,0.65,-0.59,1.77,1265,1265,1500,1500,2.34,0,3,1,1
505,56456866,1007,65,1975,-79,26,-100,23,0.03173828125,0.96435546875,-0.03857421875,0.7926829268292683,-3.048780487804878,0.701219512195122,0.049,-0.019,1.006,-1.1,-0.78,-1.66,0.65,-0.59,1.77,1266,1266,1500,1500,2.27,0,3,1,1
506,56457874,1008,77,1876,-24,1,-106,-5,0.03759765625,0.916015625,-0.01171875,0.030487804878048783,-3.231707317073171,-0.15243902439024393,0.043,-0.022,0.991,-0.68,-0.66,-2.1,0.65,-0.6,1.77,1266,1266,1500,1500,2.01,0,3,1,1
507,56458883,1009,-14,1938,53,-11,-79,-21,-0.0068359375,0.9462890625,0.02587890625,-0.3353658536585366,-2.408536585365854,-0.6402439024390244,0.032,-0.017,0.984,-0.25,-0.46,-2.11,0.65,-0.6,1.77,1265,1265,1500,1500,1.34,0,3,1,1
508,56459891,1008,-168,2016,144,-5,-26,-38,-0.08203125,0.984375,0.0703125,-0.15243902439024393,-0.7926829268292683,-1.1585365853658538,0.016,-0.001,0.984,0.21,-0.38,-1.58,0.65,-0.6,1.77,1265,1265,1500,1500,0.65,0,3,1,1
509,56460899,1008,-176,2041,106,-15,13,-60,-0.0859375,0.99658203125,0.0517578125,-0.4573170731707317,0.39634146341463417,-1.829268292682927,0.005,0.012,0.986,0.74,-0.23,-0.83,0.65,-0.6,1.77,1265,1265,1500,1500,1.39,0,3,1,1
510,56461908,1009,-25,1976,173,-38,22,-75,-0.01220703125,0.96484375,0.08447265625,-1.1585365853658538,0.6707317073170732,-2.2865853658536586,-0.008,0.012,0.983,1.25,0.09,-0.24,0.65,-0.6,1.77,1265,1265,1500,1500,1.76,0,3,1,1
511,56462916,1008,122,1816,233,-67,35,-78,0.0595703125,0.88671875,0.11376953125,-2.0426829268292686,1.0670731707317074,-2.378048780487805,-0.025,0.0,0.967,1.62,0.61,0.28,0.65,-0.59,1.77,1265,1265,1500,1500,2.22,0,3,1,1
512,56463925,1009,95,1760,97,-75,53,-70,0.04638671875,0.859375,0.04736328125,-2.2865853658536586,1.6158536585365855,-2.1341463414634148,-0.028,-0.006,0.95,1.78,1.04,0.81,0.64,-0.59,1.77,1265,1265,1500,1500,2.35,0,3,1,1
513,56464933,1008,-109,1907,-12,-59,75,-64,-0.05322265625,0.93115234375,-0.005859375,-1.7987804878048783,2.2865853658536586,-1.9512195121951221,-0.023,0.002,0.947,1.83,1.16,1.39,0.64,-0.59,1.77,1265,1265,1500,1500,2.17,0,3,1,1
514,56465941,1008,-235,2170,38,-49,98,-53,-0.11474609375,1.0595703125,0.0185546875,-1.4939024390243905,2.987804878048781,-1.6158536585365855,-0.022,0.02,0.965,1.75,1.14,2.01,0.64,-0.59,1.77,1265,1265,1500,1500,2.69,0,3,1,1
515,56466949,1008,-100,2319,35,-49,102,-24,-0.048828125,1.13232421875,0.01708984375,-1.4939024390243905,3.1097560975609757,-0.7317073170731708,-0.021,0.025,0.991,1.4,1.12,2.46,0.64,-0.59,1.77,1265,1265,1500,1500,2.79,0,3,1,1
516,56467957,1008,141,2224,-70,-50,63,7,0.06884765625,1.0859375,-0.0341796875,-1.524390243902439,1.9207317073170733,0.2134146341463415,-0.012,0.01,1.006,0.85,1.12,2.37,0.63,-0.58,1.78,1266,1266,1500,1500,1.8,0,3,1,1
517,56468965,1008,381,2079,-169,-39,3,19,0.18603515625,1.01513671875,-0.08251953125,-1.1890243902439026,0.09146341463414635,0.5792682926829269,0.002,-0.02,1.008,0.36,1.01,1.69,0.63,-0.58,1.78,1266,1266,1500,1500,0.71,0,3,1,1
518,56469974,1009,478,2086,-267,-17,-17,35,0.2333984375,1.0185546875,-0.13037109375,-0.5182926829268293,-0.5182926829268293,1.0670731707317074,0.022,-0.054,1.009,-0.11,0.71,1.04,0.64,-0.58,1.78,1266,1266,1500,1500,2.55,0,3,1,1
519,56470982,1008,162,2221,-206,-1,-12,60,0.0791015625,1.08447265625,-0.1005859375,-0.030487804878048783,-0.3658536585365854,1.829268292682927,0.034,-0.058,1.021,-0.69,0.35,0.65,0.64,-0.58,1.78,1266,1266,1500,1500,2.97,0,3,1,1
520,56471990,1008,-272,2307,-117,0,-38,57,-0.1328125,1.12646484375,-0.05712890625,0.0,-1.1585365853658538,1.7378048780487807,0.038,-0.028,1.038,-1.05,0.1,0.13,0.64,-0.58,1.78,1265,1265,1500,1500,1.78,0,3,1,1
521,56472997,1007,-217,2228,-254,7,-95,31,-0.10595703125,1.087890625,-0.1240234375,0.2134146341463415,-2.8963414634146343,0.9451219512195123,0.052,-0.006,1.046,-1.02,-0.13,-0.78,0.64,-0.58,1.78,1265,1265,1500,1500,2.27,0,3,1,1
522,56474005,1008,210,1996,-225,18,-153,27,0.1025390625,0.974609375,-0.10986328125,0.5487804878048781,-4.664634146341464,0.8231707317073171,0.061,-0.022,1.034,-0.96,-0.4,-1.99,0.64,-0.59,1.78,1266,1266,1500,1500,2.85,0,3,1,1
523,56475014,1009,345,1767,37,9,-167,38,0.16845703125,0.86279296875,0.01806640625,0.27439024390243905,-5.091463414634147,1.1585365853658538,0.048,-0.045,1.007,-1.03,-0.49,-2.94,0.64,-0.59,1.77,1266,1266,1500,1500,2.9,0,3,1,1
524,56476020,1006,59,1718,112,-17,-144,23,0.02880859375,0.8388671875,0.0546875,-0.5182926829268293,-4.390243902439025,0.701219512195122,0.032,-0.042,0.98,-0.93,-0.28,-3.34,0.65,-0.59,1.77,1266,1266,1500,1500,2.24,0,3,1,1
525,56477028,1008,-213,1839,52,-35,-103,-8,-0.10400390625,0.89794921875,0.025390625,-1.0670731707317074,-3.1402439024390247,-0.24390243902439027,0.023,-0.019,0.967,-0.54,0.03,-3.18,0.65,-0.59,1.77,1266,1266,1500,1500,0.92,0,3,1,1
526,56478037,1009,-288,2014,13,-18,-41,-27,-0.140625,0.9833984375,0.00634765625,-0.5487804878048781,-1.25,-0.8231707317073171,0.018,0.005,0.97,-0.09,0.07,-2.45,0.65,-0.59,1.76,1265,1265,1500,1500,1.11,0,3,1,1
527,56479044,1007,-246,2103,81,-4,16,-45,-0.1201171875,1.02685546875,0.03955078125,-0.12195121951219513,0.48780487804878053,-1.3719512195121952,0.009,0.024,0.979,0.38,-0.04,-1.38,0.64,-0.59,1.76,1265,1265,1500,1500,2.06,0,3,1,1
528,56480053,1009,-15,2047,278,-45,37,-70,-0.00732421875,0.99951171875,0.1357421875,-1.3719512195121952,1.128048780487805,-2.1341463414634148,-0.013,0.021,0.982,0.96,0.29,-0.45,0.64,-0.59,1.76,1265,1265,1500,1500,2.35,0,3,1,1
529,56481061,1008,231,1874,250,-86,47,-81,0.11279296875,0.9150390625,0.1220703125,-2.6219512195121952,1.4329268292682928,-2.4695121951219514,-0.03,0.0,0.971,1.46,0.94,0.26,0.64,-0.59,1.76,1265,1265,1500,1500,2.5,0,3,1,1
530,56482070,1009,133,1711,89,-82,71,-78,0.06494140625,0.83544921875,0.04345703125,-2.5,2.164634146341464,-2.378048780487805,-0.032,-0.01,0.95,1.76,1.33,0.98,0.64,-0.58,1.76,1265,1265,1500,1500,2.57,0,3,1,1
531,56483078,1008,-125,1781,48,-50,115,-70,-0.06103515625,0.86962890625,0.0234375,-1.524390243902439,3.50609756097561,-2.1341463414634148,-0.031,0.001,0.937,1.87,1.26,1.91,0.64,-0.58,1.77,1265,1265,1500,1500,2.6,0,3,1,1
532,56484086,1008,-308,2076,-120,-27,150,-53,-0.150390625,1.013671875,-0.05859375,-0.8231707317073171,4.573170731707317,-1.6158536585365855,-0.017,0.024,0.949,1.78,0.98,2.89,0.63,-0.58,1.77,1265,1265,1500,1500,2.68,0,3,1,1
533,56485094,1008,-322,2321,-150,-38,132,-31,-0.1572265625,1.13330078125,-0.0732421875,-1.1585365853658538,4.024390243902439,-0.9451219512195123,-0.002,0.045,0.978,1.49,0.91,3.35,0.63,-0.58,1.77,1265,1265,1500,1500,3.4,0,3,1,1
534,56486103,1009,-12,2322,47,-51,79,-3,-0.005859375,1.1337890625,0.02294921875,-1.5548780487804879,2.408536585365854,-0.09146341463414635,-0.006,0.039,1.003,1.01,0.99,3.12,0.63,-0.58,1.77,1266,1266,1500,1500,3.03,0,3,1,1
535,56487111,1008,369,2157,-42,-40,19,16,0.18017578125,1.05322265625,-0.0205078125,-1.2195121951219514,0.5792682926829269,0.48780487804878053,-0.001,0.004,1.011,0.5,0.93,2.36,0.63,-0.58,1.78,1266,1266,1500,1500,1.12,0,3,1,1
536,56488119,1008,575,2054,-261,-4,-3,29,0.28076171875,1.0029296875,-0.12744140625,-0.12195121951219513,-0.09146341463414635,0.8841463414634148,0.018,-0.04,1.009,0.03,0.53,1.62,0.63,-0.58,1.78,1265,1265,1500,1500,1.74,0,3,1,1
