host_time_s,stage,timestamp_us,sequence,raw_temperature,raw_accel_x,raw_accel_y,raw_accel_z,raw_gyro_x,raw_gyro_y,raw_gyro_z,temperature_c,accel_x_g,accel_y_g,accel_z_g,gyro_x_dps,gyro_y_dps,gyro_z_dps,roll_deg,pitch_deg,yaw_deg,roll_acc_deg,pitch_acc_deg,roll_gyro_deg,pitch_gyro_deg,roll_residual_deg,pitch_residual_deg,accel_norm_g,accel_residual_deg,dt_ms,gyro_bias_ready,imu_data_ready_count,imu_poll_ready_count,fusion_acceleration_error_deg,fusion_acceleration_recovery_trigger,fusion_accel_correction_count,fusion_accelerometer_ignored,fusion_acceleration_recovery,fusion_angular_rate_recovery,fusion_accel_norm_rejected
1.2999953469261527e-06,baseline,2221365219,2200100,392,22,8149,-125,-13,-9,1,28.0625,0.013106660917401314,-0.0019750057253986597,0.9938973784446716,0.009011650457978249,-0.024146489799022675,-0.025908617302775383,-0.1801193803548813,0.10003054141998291,18.225309371948242,-0.11385415494441986,0.7555220127105713,-0.11032398045063019,0.7484138011932373,-0.014461494982242584,0.0178147554397583,0.9940853118896484,0.022945595905184746,1.0080000162124634,1,2200101,0,0.023226719349622726,0.0,2110926,0,0,0,0
0.010430900001665577,baseline,2221375302,2200111,406,24,8143,-113,-15,-9,4,28.171875,0.013600729405879974,-0.0023669349029660225,0.9942918419837952,-0.0236150324344635,0.031827595084905624,0.0077777886763215065,-0.18002134561538696,0.10009157657623291,18.225444793701172,-0.1363936960697174,0.7836869955062866,-0.11022593826055527,0.7484748363494873,-0.02616775780916214,0.035212159156799316,0.994387686252594,0.028780311346054077,1.0080000162124634,1,2200112,0,0.029095184057950974,0.0,2110937,0,0,0,0
0.020513399998890236,baseline,2221385386,2200120,396,18,8142,-91,-13,-11,3,28.09375,0.01345890760421753,-0.0019266200251877308,0.993893027305603,-0.013805968686938286,-0.009247677400708199,-0.057970888912677765,-0.17997372150421143,0.10027331113815308,18.225339889526367,-0.11799027770757675,0.7598313093185425,-0.11016702651977539,0.7486486434936523,-0.007823251187801361,0.011182665824890137,0.9940992593765259,0.013647537678480148,1.0089999437332153,1,2200121,0,0.013942957855761051,0.0,2110946,0,0,0,0
0.030469000004814006,baseline,2221395470,2200130,404,14,8134,-112,-15,-11,2,28.15625,0.013453606516122818,-0.002138040727004409,0.9937982559204102,-0.007088883779942989,-0.018759824335575104,-0.04325360059738159,-0.18001723289489746,0.09964817762374878,18.225080490112305,-0.12267885357141495,0.7574328780174255,-0.11022739857435226,0.7480367422103882,-0.012451454997062683,0.009396135807037354,0.9939804673194885,0.01559891365468502,1.0089999437332153,1,2200131,0,0.0158376544713974,0.0,2110956,0,0,0,0
0.04050149999966379,baseline,2221405554,2200140,404,10,8137,-137,-14,-8,3,28.15625,0.014476015232503414,-0.0017694877460598946,0.9941179156303406,-0.02849963679909706,-0.025554234161973,0.006384045816957951,-0.1798943281173706,0.09936988353729248,18.22508430480957,-0.09475957602262497,0.8405098915100098,-0.11006523668766022,0.7477547526359558,0.015305660665035248,0.09275513887405396,0.9939781427383423,0.09400945901870728,1.0089999437332153,1,2200141,0,0.09443619102239609,0.0,2110966,0,0,0,0
0.05052119999891147,baseline,2221415638,2200150,392,10,8138,-115,-12,-10,1,28.0625,0.014777726493775845,-0.00157444819342345,0.9933061599731445,0.010177326388657093,-0.05042877048254013,-0.05562970042228699,-0.1796964704990387,0.09912002086639404,18.224822998046875,-0.09426510334014893,0.8286879658699036,-0.10987329483032227,0.7475029826164246,0.01560819149017334,0.081184983253479,0.9935824871063232,0.08267174661159515,1.0089999437332153,1,2200151,0,0.08308745920658112,0.0,2110976,0,0,0,0
0.060517699996125884,baseline,2221425722,2200160,396,21,8144,-105,-15,-10,2,28.09375,0.013498038053512573,-0.001928455545566976,0.9936380386352539,-0.01110921986401081,0.011745573952794075,-0.04510710760951042,-0.17935647070407867,0.09912383556365967,18.22451400756836,-0.11588820815086365,0.7787392735481262,-0.10956098884344101,0.7475541830062866,-0.006327219307422638,0.0311850905418396,0.9937534928321838,0.03182049095630646,1.0089999437332153,1,2200161,0,0.03224368393421173,0.0,2110986,0,0,0,0
0.07018379999499302,baseline,2221434798,2200169,404,22,8146,-122,-11,-8,5,28.125,0.014258245937526226,-0.0022560516372323036,0.9944537878036499,-0.0393892303109169,-0.0650249794125557,-0.008694137446582317,-0.17928221821784973,0.09928375482559204,18.224300384521484,-0.12998293340206146,0.8214350938796997,-0.10948681086301804,0.7476670145988464,-0.020496122539043427,0.07376807928085327,0.994558572769165,0.07656253129243851,1.0080000162124634,1,2200170,0,0.07692701369524002,0.0,2110996,0,0,0,0
0.08039170000120066,baseline,2221444882,2200179,400,17,8146,-118,-15,-9,2,28.03125,0.014232488349080086,-0.0018645597156137228,0.9941489696502686,-0.009667393751442432,0.04170265421271324,-0.019582705572247505,-0.17913667857646942,0.09940910339355469,18.224185943603516,-0.10746002942323685,0.820203423500061,-0.10934127867221832,0.7477923631668091,0.0018812492489814758,0.07241106033325195,0.9942525625228882,0.07243549078702927,1.0080000162124634,1,2200181,0,0.06217563524842262,0.0,2111006,0,0,0,0
0.0904828000057023,baseline,2221454966,2200189,388,21,8149,-102,-13,-10,2,28.21875,0.013428416103124619,-0.0017562888097018003,0.9942474961280823,-0.013989749364554882,-0.03210398554801941,-0.0360935814678669,-0.1789926439523697,0.09953057765960693,18.223901748657227,-0.10121004283428192,0.7737948298454285,-0.10919724404811859,0.7479138374328613,0.00798720121383667,0.02588099241256714,0.9943397045135498,0.02708544209599495,1.0080000162124634,1,2200191,0,0.04122872278094292,0.0,2111016,0,0,0,0
0.10041699999419507,baseline,2221465049,2200199,394,15,8151,-110,-12,-9,2,28.078125,0.013426631689071655,-0.0016154551412910223,0.9944506287574768,0.008412275463342667,-0.04484928399324417,-0.01855863258242607,-0.17884060740470886,0.0994107723236084,18.22372817993164,-0.09504443407058716,0.7490018010139465,-0.10904520004987717,0.7477940320968628,0.014000765979290009,0.0012077689170837402,0.9945458769798279,0.014052762649953365,1.0089999437332153,1,2200200,0,0.014090040698647499,0.0,2111025,0,0,0,0
0.11048950000258628,baseline,2221476142,2200210,418,18,8147,-112,-15,-8,4,28.265625,0.01298692636191845,-0.0016571372980251908,0.994705080986023,-0.017824828624725342,0.03580978512763977,0.00130005506798625,-0.1787545084953308,0.09941929578781128,18.22373390197754,-0.10708726942539215,0.7298054695129395,-0.10892932116985321,0.7478101849555969,0.0018420517444610596,-0.01800471544265747,0.9946979880332947,0.018098700791597366,1.0080000162124634,1,2200211,0,0.01774393580853939,0.0,2111036,0,0,0,0
0.1204823000007309,baseline,2221485217,2200219,400,27,8150,-101,-12,-10,1,28.125,0.011955355294048786,-0.0026062880642712116,0.9947249889373779,0.02507297322154045,-0.030268944799900055,-0.017053531482815742,-0.17893657088279724,0.09911972284317017,18.223602294921875,-0.1519446223974228,0.7086549401283264,-0.10914116352796555,0.7475029826164246,-0.042803458869457245,-0.038848042488098145,0.9949054718017578,0.057804036885499954,1.0089999437332153,1,2200220,0,0.05765042081475258,0.0,2111045,0,0,0,0
0.13049579999642447,baseline,2221495301,2200229,392,15,8147,-94,-15,-9,3,28.0625,0.012479396536946297,-0.0023926820140331984,0.9943597316741943,-0.007927784696221352,0.009744269773364067,-0.01599675975739956,-0.17908227443695068,0.09892106056213379,18.22347640991211,-0.1371890902519226,0.7309983968734741,-0.1092890202999115,0.7473043203353882,-0.02790006995201111,-0.016305923461914062,0.9945055842399597,0.032315585762262344,1.0089999437332153,1,2200230,0,0.03215891867876053,0.0,2111055,0,0,0,0
0.1400634000019636,baseline,2221504377,2200239,404,5,8133,-107,-16,-10,2,28.15625,0.01335984282195568,-0.002390968846157193,0.9939625859260559,-0.020992755889892578,0.012379342690110207,-0.03825627639889717,-0.17905592918395996,0.09882020950317383,18.22332763671875,-0.13782426714897156,0.7700634598731995,-0.10926052927970886,0.7472034692764282,-0.028563737869262695,0.02285999059677124,0.9940552711486816,0.017061525955796242,1.0089999437332153,1,2200240,0,0.01701345108449459,0.0,2111065,0,0,0,0
0.15007479999621864,baseline,2221514461,2200248,394,19,8139,-130,-11,-9,2,28.125,0.01357538066804409,-0.0023214509710669518,0.9934945702552795,-0.0008409884758293629,-0.010922584682703018,-0.037594810128211975,-0.17913579940795898,0.09901267290115356,18.22296714782715,-0.13388004899024963,0.7828543186187744,-0.10934039950370789,0.747395932674408,-0.024539649486541748,0.035458385944366455,0.9935899972915649,0.0431218221783638,1.0080000162124634,1,2200250,0,0.05589338764548302,0.0,2111075,0,0,0,0
0.16018370000529103,baseline,2221524545,2200258,404,22,8155,-111,-12,-10,1,28.15625,0.013896065764129162,-0.002448811661452055,0.994317352771759,0.01853223145008087,-0.03530046343803406,-0.06651538610458374,-0.17930656671524048,0.098976731300354,18.222637176513672,-0.14110815525054932,0.8006816506385803,-0.10951117426156998,0.7473599910736084,-0.03159698098897934,0.053321659564971924,0.9944174885749817,0.061980389058589935,1.0080000162124634,1,2200260,0,0.0612344965338707,0.0,2111085,0,0,0,0
0.17055680000339635,baseline,2221535637,2200269,390,10,8143,-105,-11,-9,5,28.046875,0.013037431053817272,-0.0019987099803984165,0.9940990209579468,-0.04671241343021393,-0.026164252310991287,-0.027304325252771378,-0.17931333184242249,0.09903520345687866,18.222354888916016,-0.11519726365804672,0.7513793110847473,-0.10949371755123138,0.7473835349082947,-0.006410963833332062,0.0009223818778991699,0.9941149353981018,0.006476978305727243,1.0080000162124634,1,2200270,0,0.006511732470244169,0.0,2111095,0,0,0,0
0.1804833000060171,baseline,2221544712,2200279,396,14,8141,-102,-10,-8,2,28.09375,0.012908783741295338,-0.0019959777127951384,0.9944584965705872,0.000665079802274704,-0.07894372940063477,-0.01576000079512596,-0.17930647730827332,0.0990038514137268,18.22212791442871,-0.11499819904565811,0.7436969876289368,-0.10951107740402222,0.7473871111869812,-0.005487121641635895,0.0024282336235046387,0.9942631125450134,0.01315393764525652,1.0080000162124634,1,2200280,0,0.01323346234858036,0.0,2111105,0,0,0,0
0.19054939999477938,baseline,2221555805,2200289,388,26,8150,-95,-15,-10,2,28.03125,0.013210021890699863,-0.002238605637103319,0.9942044019699097,0.01407581102102995,0.04587044194340706,-0.033022455871105194,-0.1793755441904068,0.09917932748794556,18.22211456298828,-0.1290101408958435,0.7612439393997192,-0.1095801442861557,0.7475625872612,-0.019429996609687805,0.007680714130401611,0.9944964051246643,0.026816023513674736,1.0080000162124634,1,2200290,0,0.026970943436026573,0.0,2111115,0,0,0,0
0.20024370000464842,baseline,2221564880,2200298,396,21,8132,-119,-14,-9,1,28.09375,0.013557204976677895,-0.0018870614003390074,0.9939746856689453,0.03691667318344116,0.021089984104037285,-0.034421250224113464,-0.17950677871704102,0.09937518835067749,18.221853256225586,-0.10877593606710434,0.7780144810676575,-0.10971137136220932,0.7477584481239319,0.0009354352951049805,0.030256032943725586,0.9940680861473083,0.030270488932728767,1.0089999437332153,1,2200299,0,0.030689219012856483,0.0,2111124,0,0,0,0
0.21036959999764804,baseline,2221575973,2200309,400,30,8142,-145,-13,-9,1,28.125,0.014189221896231174,-0.0021792391780763865,0.9941281080245972,0.036082640290260315,-0.016088765114545822,-0.02904628962278366,-0.17993545532226562,0.09958845376968384,18.221458435058594,-0.13470527529716492,0.8275964260101318,-0.11019083112478256,0.7479935884475708,-0.024514444172382355,0.07960283756256104,0.9941203594207764,0.08329207450151443,1.0080000162124634,1,2200310,0,0.08372896164655685,0.0,2111135,0,0,0,0
0.22013950000109617,baseline,2221585048,2200318,416,28,8144,-106,-11,-8,3,28.25,0.01448904536664486,-0.002125449711456895,0.9942998886108398,-0.024563994258642197,-0.03489886224269867,-0.009678992442786694,-0.1799716055393219,0.09996700286865234,18.221263885498047,-0.12425719201564789,0.8129447102546692,-0.11016017198562622,0.7483417391777039,-0.014097020030021667,0.06460297107696533,0.99433833360672,0.06612314283847809,1.0080000162124634,1,2200319,0,0.06650982052087784,0.0,2111144,0,0,0,0
0.23021999999764375,baseline,2221595132,2200328,410,10,8154,-118,-13,-8,2,28.203125,0.013625657185912132,-0.002118067117407918,0.9944193959236145,0.008361148647964,0.012834643945097923,-0.00690073799341917,-0.17990759015083313,0.10034191608428955,18.221126556396484,-0.1216389611363411,0.7965558171272278,-0.11011689901351929,0.7487097382545471,-0.011522062122821808,0.047846078872680664,0.9945703148841858,0.049213871359825134,1.0080000162124634,1,2200329,0,0.049585312604904175,0.0,2111154,0,0,0,0
0.24048530000436585,baseline,2221605216,2200338,404,32,8139,-111,-12,-8,4,28.15625,0.013992531225085258,-0.0022935462184250355,0.9940614104270935,-0.023669850081205368,-0.009057726711034775,0.007843290455639362,-0.18010497093200684,0.1004144549369812,18.221118927001953,-0.14693763852119446,0.821366548538208,-0.11030957847833633,0.7487977147102356,-0.036628060042858124,0.07256883382797241,0.9941668510437012,0.08128868788480759,1.0080000162124634,1,2200339,0,0.08168751746416092,0.0,2111164,0,0,0,0
0.2501717999984976,baseline,2221615300,2200348,396,14,8153,-103,-13,-10,2,28.09375,0.014570610597729683,-0.0024395016953349113,0.994219183921814,-0.026356056332588196,-0.02169928327202797,-0.02385709621012211,-0.1800043284893036,0.1007380485534668,18.221153259277344,-0.14058557152748108,0.818993866443634,-0.11021073162555695,0.7491448521614075,-0.030366629362106323,0.06984901428222656,0.9945049285888672,0.07616440951824188,1.0080000162124634,1,2200349,0,0.07656922936439514,0.0,2111174,0,0,0,0
0.2602792999969097,baseline,2221625384,2200358,420,19,8152,-115,-14,-10,2,28.28125,0.013174726627767086,-0.00166606018319726,0.9941471815109253,-0.014015615917742252,-0.02047857642173767,-0.03991430997848511,-0.17980316281318665,0.10057157278060913,18.22089958190918,-0.10421907901763916,0.774924635887146,-0.10998918116092682,0.7489365935325623,0.005770102143287659,0.02598804235458374,0.9942774176597595,0.026620902121067047,1.0080000162124634,1,2200359,0,0.026979973539710045,0.0,2111184,0,0,0,0
0.27040259999921545,baseline,2221635468,2200368,412,19,8144,-114,-11,-8,3,28.21875,0.014509041793644428,-0.0019081920618191361,0.9939267635345459,0.007543526589870453,-0.058451782912015915,-0.0031088278628885746,-0.17960256338119507,0.10074210166931152,18.220869064331055,-0.10817641019821167,0.8331242799758911,-0.10981497168540955,0.7490902543067932,0.001638561487197876,0.0840340256690979,0.9940481781959534,0.0840499997138977,1.0080000162124634,1,2200369,0,0.0844336599111557,0.0,2111194,0,0,0,0
0.2805434000038076,baseline,2221645551,2200378,396,6,8142,-100,-13,-8,4,28.09375,0.012739898636937141,-0.0012476639822125435,0.9939560890197754,-3.322772681713104e-05,-0.06844257563352585,0.0191501434892416,-0.1798219084739685,0.10026675462722778,18.220998764038086,-0.08395913243293762,0.7418224811553955,-0.11000657081604004,0.7485829591751099,0.026047438383102417,-0.0067604780197143555,0.9939342141151428,0.026910465210676193,1.0080000162124634,1,2200379,0,0.026872092857956886,0.0,2111204,0,0,0,0
0.2901399999973364,baseline,2221654626,2200387,404,12,8127,-116,-12,-8,2,28.1875,0.012511294335126877,-0.00142657570540905,0.9932729005813599,0.004449435509741306,-0.02578667365014553,-0.013912305235862732,-0.17972345650196075,0.10004919767379761,18.220834732055664,-0.08229028433561325,0.7216603755950928,-0.10992805659770966,0.748432457447052,0.027637772262096405,-0.02677208185195923,0.9933527112007141,0.03847844526171684,1.0089999437332153,1,2200389,0,0.037847112864255905,0.0,2111214,0,0,0,0
0.3002808000019286,baseline,2221664710,2200397,390,10,8154,-96,-14,-9,2,28.15625,0.012367846444249153,-0.0015293655451387167,0.9944067597389221,0.034672342240810394,0.01589786261320114,-0.011566922068595886,-0.17984123528003693,0.10029047727584839,18.220626831054688,-0.08811900019645691,0.7125735878944397,-0.11004583537578583,0.7486737370491028,0.02192683517932892,-0.036100149154663086,0.9944848418235779,0.042237505316734314,1.0080000162124634,1,2200399,0,0.039380673319101334,0.0,2111224,0,0,0,0
0.3103817999945022,baseline,2221675801,2200408,396,19,8152,-97,-14,-9,3,28.09375,0.012258605100214481,-0.002122406382113695,0.9945712685585022,0.025122927501797676,0.012655733153223991,-0.00648022023960948,-0.18023455142974854,0.10030204057693481,18.220661163330078,-0.1207042783498764,0.7011290788650513,-0.11044438183307648,0.7486419081687927,-0.010259896516799927,-0.047512829303741455,0.994792640209198,0.0486079677939415,1.0080000162124634,1,2200409,0,0.04832679033279419,0.0,2111234,0,0,0,0
0.32041660000686534,baseline,2221684876,2200417,392,22,8146,-101,-15,-8,2,28.078125,0.012519793584942818,-0.0020517068915069103,0.9940204620361328,0.0059481291100382805,0.02662152424454689,-0.03009423241019249,-0.18033039569854736,0.1000872254371643,18.220417022705078,-0.11826112121343613,0.7216067314147949,-0.11053499579429626,0.7484704852104187,-0.007726125419139862,-0.02686375379562378,0.9941014051437378,0.027952713891863823,1.0089999437332153,1,2200419,0,0.0162862166762352,0.0,2111244,0,0,0,0
0.3303763000003528,baseline,2221694959,2200427,406,17,8146,-91,-13,-9,4,28.171875,0.012553909793496132,-0.0016024783253669739,0.994233250617981,-0.027072682976722717,-0.020425762981176376,-0.02331625297665596,-0.18020254373550415,0.1003456711769104,18.22026252746582,-0.09776825457811356,0.711210310459137,-0.11040713638067245,0.7487289309501648,0.012638881802558899,-0.03751862049102783,0.9944708943367004,0.0395902544260025,1.0089999437332153,1,2200428,0,0.03931448236107826,0.0,2111253,0,0,0,0
0.3404277999943588,baseline,2221705043,2200437,424,4,8143,-111,-14,-9,2,28.3125,0.0133428405970335,-0.0014595173997804523,0.9946817755699158,0.002926488406956196,0.004130675457417965,-0.010701385326683521,-0.17996734380722046,0.10056066513061523,18.22016143798828,-0.07187152653932571,0.7471998929977417,-0.11017194390296936,0.7489439249038696,0.038300417363643646,-0.0017440319061279297,0.9945070743560791,0.03834010660648346,1.0089999437332153,1,2200438,0,0.03836028277873993,0.0,2111263,0,0,0,0
0.3502489999955287,baseline,2221715127,2200447,400,15,8138,-109,-13,-10,3,28.125,0.013010729104280472,-0.0021950267255306244,0.994111955165863,-0.024503931403160095,-0.037953175604343414,-0.05447052791714668,-0.1798877716064453,0.10025924444198608,18.219757080078125,-0.12318767607212067,0.7648244500160217,-0.11007637530565262,0.7486175894737244,-0.013111300766468048,0.016206860542297363,0.9941686391830444,0.020846307277679443,1.0089999437332153,1,2200448,0,0.02111419104039669,0.0,2111273,0,0,0,0
0.360487900004955,baseline,2221725211,2200457,404,19,8146,-104,-15,-8,1,28.15625,0.01290084794163704,-0.002288054209202528,0.9939258098602295,0.0180671289563179,-0.005644268821924925,-0.0005032466724514961,-0.17983558773994446,0.09993088245391846,18.219589233398438,-0.1299411803483963,0.7495150566101074,-0.11004018783569336,0.7483141422271729,-0.019900992512702942,0.0012009143829345703,0.9940862059593201,0.019937193021178246,1.0089999437332153,1,2200458,0,0.01999901421368122,0.0,2111283,0,0,0,0
0.37004809999780264,baseline,2221735295,2200467,398,20,8150,-96,-12,-7,1,28.109375,0.013392372988164425,-0.002500340575352311,0.9947118759155273,0.026720251888036728,-0.03845055773854256,0.017549967393279076,-0.17998504638671875,0.09973329305648804,18.21973419189453,-0.14402024447917938,0.7713567018508911,-0.11018965393304825,0.7481165528297424,-0.027715638279914856,0.017146527767181396,0.9944804906845093,0.03259079530835152,1.0080000162124634,1,2200468,0,0.03282826021313667,0.0,2111293,0,0,0,0
0.38033749999885913,baseline,2221745379,2200477,400,20,8135,-115,-12,-9,4,28.125,0.013986066915094852,-0.0022114168386906385,0.9935464859008789,-0.01414266973733902,-0.005573181435465813,-0.016182545572519302,-0.18003863096237183,0.10008770227432251,18.219694137573242,-0.13075049221515656,0.7779625654220581,-0.11024785786867142,0.7484646439552307,-0.020502634346485138,0.029497921466827393,0.9936187267303467,0.03592332825064659,1.0080000162124634,1,2200478,0,0.036242641508579254,0.0,2111303,0,0,0,0
0.39053920000151265,baseline,2221755463,2200487,396,21,8141,-119,-13,-8,3,28.09375,0.014038287103176117,-0.0024687715340405703,0.9934640526771545,-0.016554225236177444,-0.0014876509085297585,0.005079536698758602,-0.1801583468914032,0.10003763437271118,18.219602584838867,-0.14770276844501495,0.81732577085495,-0.11037427932024002,0.7484369277954102,-0.03732848912477493,0.0688888430595398,0.9936370849609375,0.07835233956575394,1.0080000162124634,1,2200488,0,0.07874142378568649,0.0,2111313,0,0,0,0
0.4001145000074757,baseline,2221764538,2200496,404,13,8145,-115,-17,-10,6,28.125,0.013375146314501762,-0.0021692649461328983,0.9940119981765747,-0.03926140069961548,0.036723542958498,-0.019434209913015366,-0.1804080307483673,0.10028868913650513,18.219602584838867,-0.1250382661819458,0.7709075808525085,-0.11061262339353561,0.7486719489097595,-0.014425642788410187,0.022235631942749023,0.9941043257713318,0.026505140587687492,1.0080000162124634,1,2200498,0,0.011105506680905819,0.0,2111323,0,0,0,0
0.4104804999951739,baseline,2221776639,2200508,408,17,8138,-117,-15,-7,3,28.1875,0.013145052827894688,-0.0020000615622848272,0.993872880935669,-0.02737870067358017,-0.01939188875257969,0.01979319006204605,-0.18010926246643066,0.10037833452224731,18.219362258911133,-0.11530140042304993,0.7577534914016724,-0.11031386256217957,0.7487749457359314,0.001019798219203949,0.025976061820983887,0.9940854907035828,0.025996072217822075,1.0080000162124634,1,2200509,0,0.026390813291072845,0.0,2111334,0,0,0,0
0.420543500003987,baseline,2221785714,2200517,404,20,8144,-128,-12,-10,2,28.15625,0.014329610392451286,-0.0020839388016611338,0.9941329956054688,-0.0011119949631392956,-0.044497959315776825,-0.032092250883579254,-0.1800876408815384,0.10042625665664673,18.219284057617188,-0.12010538578033447,0.825812578201294,-0.11029224097728729,0.7488176822662354,-0.0041327401995658875,0.0899806022644043,0.994204044342041,0.09007545560598373,1.0089999437332153,1,2200518,0,0.09050694853067398,0.0,2111343,0,0,0,0
0.43062909999571275,baseline,2221795798,2200527,406,16,8146,-105,-13,-8,2,28.171875,0.014064215123653412,-0.0013160314410924911,0.9945703744888306,-0.022414758801460266,-0.021255653351545334,0.011429933831095695,-0.17972859740257263,0.10058087110519409,18.219341278076172,-0.07581464946269989,0.8101646304130554,-0.10993319749832153,0.7489641308784485,0.029390521347522736,0.06648582220077515,0.9947201013565063,0.07269227504730225,1.0089999437332153,1,2200528,0,0.07309301197528839,0.0,2111353,0,0,0,0
0.44009449999430217,baseline,2221804874,2200536,398,2,8144,-105,-13,-9,1,28.109375,0.013343682512640953,-0.0017633449751883745,0.9943971633911133,0.04913618415594101,-0.015032229013741016,-0.023475833237171173,-0.17981788516044617,0.10082966089248657,18.219188690185547,-0.09218068420886993,0.7494909763336182,-0.11005019396543503,0.7492058277130127,0.017869509756565094,0.00028514862060546875,0.9944815635681152,0.017871784046292305,1.0080000162124634,1,2200537,0,0.017863376066088676,0.0,2111362,0,0,0,0
0.4501712000055704,baseline,2221814959,2200546,394,21,8142,-104,-13,-9,2,28.078125,0.012548483908176422,-0.002006725873798132,0.9945787191390991,0.007304223254323006,-0.04024476930499077,-0.026377853006124496,-0.1798953413963318,0.10077935457229614,18.219099044799805,-0.11958102881908417,0.7309231758117676,-0.11011361330747604,0.7491087913513184,-0.009467415511608124,-0.01818561553955078,0.9946116805076599,0.020502403378486633,1.0059999227523804,1,2200547,0,0.020246747881174088,0.0,2111372,0,0,0,0
0.4601740000071004,baseline,2221825040,2200556,392,12,8142,-108,-15,-9,3,28.0625,0.013085811398923397,-0.001485278713516891,0.9943557977676392,-0.024354157969355583,-0.02488294616341591,-0.011400813236832619,-0.17980176210403442,0.10055077075958252,18.218904495239258,-0.0887427106499672,0.76936274766922,-0.10998307168483734,0.748951256275177,0.021240361034870148,0.02041149139404297,0.9944512248039246,0.029458139091730118,1.0080000162124634,1,2200557,0,0.029758037999272346,0.0,2111382,0,0,0,0
0.4705136999982642,baseline,2221835124,2200566,410,18,8132,-108,-14,-9,1,28.203125,0.01346072182059288,-0.0022416035644710064,0.9943379759788513,0.015694288536906242,0.010489617474377155,-0.017092786729335785,-0.17970766127109528,0.1004900336265564,18.218637466430664,-0.12916554510593414,0.7685912251472473,-0.10991226136684418,0.7488732933998108,-0.019253283739089966,0.019717931747436523,0.9944300055503845,0.027558770030736923,1.0080000162124634,1,2200567,0,0.027869876474142075,0.0,2111393,0,0,0,0
0.48057949999929406,baseline,2221845208,2200576,396,10,8145,-112,-12,-9,2,28.09375,0.01367135252803564,-0.0018448687624186277,0.9942702651023865,0.010282974690198898,-0.005662340205162764,-0.018474016338586807,-0.17992003262043,0.10088694095611572,18.218341827392578,-0.10631221532821655,0.7665849924087524,-0.1101246327161789,0.7492702007293701,0.0038124173879623413,0.017314791679382324,0.9943609833717346,0.017729539424180984,1.0080000162124634,1,2200577,0,0.01809847168624401,0.0,2111403,0,0,0,0
0.49038849999487866,baseline,2221855292,2200586,410,21,8137,-115,-17,-9,4,28.203125,0.013216692954301834,-0.0016763785388320684,0.9936459064483643,-0.01042220089584589,0.03141146898269653,-0.02399175986647606,-0.17986992001533508,0.10099250078201294,18.21828269958496,-0.11034499853849411,0.7828688621520996,-0.11007452011108398,0.7493757605552673,-0.00027047842741012573,0.033493101596832275,0.993857741355896,0.033494193106889725,1.0080000162124634,1,2200587,0,0.033928800374269485,0.0,2111412,0,0,0,0
0.5004333999968367,baseline,2221865375,2200596,406,16,8150,-111,-12,-10,3,28.171875,0.014206253923475742,-0.0018891080981120467,0.9944738745689392,0.0012762751430273056,-0.0356304794549942,-0.026615098118782043,-0.18006756901741028,0.10084724426269531,18.218137741088867,-0.1127786859869957,0.811370849609375,-0.11026818305253983,0.7492202520370483,-0.0025105029344558716,0.06215059757232666,0.9945033192634583,0.062201280146837234,1.0080000162124634,1,2200597,0,0.06259521842002869,0.0,2111422,0,0,0,0
0.5104195000021718,baseline,2221876467,2200607,402,25,8153,-104,-13,-9,5,28.140625,0.01337907463312149,-0.002560145454481244,0.9937354922294617,-0.03179948776960373,-0.05683807283639908,-0.007409959100186825,-0.18018174171447754,0.10067659616470337,18.21782112121582,-0.1476099193096161,0.7716978192329407,-0.1103442832827568,0.7490463256835938,-0.03281346708536148,0.022651493549346924,0.9939510822296143,0.03987246751785278,1.0089999437332153,1,2200608,0,0.04006192833185196,0.0,2111433,0,0,0,0
0.5200984999974025,baseline,2221884534,2200616,416,11,8144,-122,-16,-11,2,28.25,0.0133397551253438,-0.0025385734625160694,0.9939659237861633,-0.015252385288476944,0.05601816624403,-0.06558015197515488,-0.18009260296821594,0.10108602046966553,18.217506408691406,-0.14633220434188843,0.7689029574394226,-0.11029721051454544,0.7494692802429199,-0.03603499382734299,0.019433677196502686,0.9940586686134338,0.039868373423814774,1.0089999437332153,1,2200617,0,0.04010913521051407,0.0,2111442,0,0,0,0
0.5300933999969857,baseline,2221894617,2200625,410,14,8149,-95,-14,-10,5,28.078125,0.012749671004712582,-0.0019101961515843868,0.9941937327384949,-0.04242818430066109,-0.01883091777563095,-0.039267782121896744,-0.1799653172492981,0.10091990232467651,18.217254638671875,-0.11008522659540176,0.7347269654273987,-0.110169917345047,0.7493031620979309,8.469074964523315e-05,-0.014576196670532227,0.99427729845047,0.014576442539691925,1.0080000162124634,1,2200626,0,0.01626933552324772,0.0,2111452,0,0,0,0
0.5405982999945991,baseline,2221905708,2200636,404,25,8139,-94,-17,-10,3,28.15625,0.01308030541986227,-0.001966634066775441,0.993868350982666,-0.012348905205726624,0.044669173657894135,-0.020864028483629227,-0.17984050512313843,0.10098534822463989,18.217111587524414,-0.12330775707960129,0.7394147515296936,-0.11003691703081131,0.7494069933891296,-0.013270840048789978,-0.009992241859436035,0.9938610792160034,0.016612045466899872,1.0089999437332153,1,2200637,0,0.016376201063394547,0.0,2111462,0,0,0,0
0.5505064000026323,baseline,2221914784,2200646,400,7,8142,-116,-14,-11,2,28.125,0.014052920043468475,-0.0017109994078055024,0.9938782453536987,-0.009556828066706657,0.01743795908987522,-0.059515662491321564,-0.17981718480587006,0.10110092163085938,18.216920852661133,-0.09863677620887756,0.8100772500038147,-0.11002178490161896,0.7494841814041138,0.011385008692741394,0.06059306859970093,0.9939790368080139,0.05416067689657211,1.0089999437332153,1,2200647,0,0.05456838756799698,0.0,2111472,0,0,0,0
0.5605514000053518,baseline,2221924868,2200656,410,31,8150,-120,-17,-7,4,28.203125,0.014119821600615978,-0.0022055257577449083,0.9946443438529968,-0.029649507254362106,0.04542720317840576,0.01159777119755745,-0.17955467104911804,0.1013103723526001,18.21670150756836,-0.12704752385616302,0.8133056163787842,-0.10975926369428635,0.7496936321258545,-0.01728826016187668,0.06361198425292969,0.9947469830513,0.0659194067120552,1.0080000162124634,1,2200657,0,0.04939977079629898,0.0,2111482,0,0,0,0
0.5701734000031138,baseline,2221934952,2200665,414,25,8153,-115,-13,-8,2,28.234375,0.01422956120222807,-0.0024155948776751757,0.994552493095398,0.0034713305067270994,0.014372510835528374,0.006588234566152096,-0.1794833540916443,0.1019708514213562,18.21665382385254,-0.1516314148902893,0.8278001546859741,-0.10971488803625107,0.7503954768180847,-0.04191652685403824,0.0774046778678894,0.9948849081993103,0.08802544325590134,1.0080000162124634,1,2200666,0,0.08845049887895584,0.0,2111491,0,0,0,0
0.5800797999982024,baseline,2221945036,2200675,404,2,8153,-108,-13,-9,2,28.15625,0.013120188377797604,-0.00206365785561502,0.9950830340385437,-0.0004937327466905117,-0.02883949875831604,-0.02954973094165325,-0.17950394749641418,0.10204261541366577,18.216617584228516,-0.10333139449357986,0.7616225481033325,-0.10970882326364517,0.7504047751426697,0.006377428770065308,0.011217772960662842,0.9950811862945557,0.012903876602649689,1.0080000162124634,1,2200676,0,0.013211855664849281,0.0,2111501,0,0,0,0
0.5904599000059534,baseline,2221955120,2200685,398,3,8139,-103,-10,-9,3,28.109375,0.012610902078449726,-0.0009831520728766918,0.994688093662262,-0.0072644236497581005,-0.09633215516805649,-0.03045840933918953,-0.1795230656862259,0.10150885581970215,18.21624755859375,-0.06104310229420662,0.715008556842804,-0.10972766578197479,0.7498921155929565,0.04868456348776817,-0.03488355875015259,0.99458247423172,0.05989198014140129,1.0080000162124634,1,2200686,0,0.059807807207107544,0.0,2111511,0,0,0,0
0.6004055000084918,baseline,2221965203,2200695,404,24,8152,-112,-14,-9,1,28.15625,0.013238371349871159,-0.0021363438572734594,0.9945130944252014,0.03289712220430374,-0.05643007531762123,-0.015197831206023693,-0.1795782595872879,0.10077369213104248,18.216012954711914,-0.1180630624294281,0.7699775695800781,-0.109833262860775,0.7491117119789124,-0.008229799568653107,0.02086585760116577,0.9945653080940247,0.022430194541811943,1.0089999437332153,1,2200696,0,0.022760028019547462,0.0,2111521,0,0,0,0
0.6101783000049181,baseline,2221975287,2200705,412,25,8156,-118,-12,-8,1,28.21875,0.013588541187345982,-0.002046958077698946,0.9944299459457397,0.02440682426095009,-0.0024424027651548386,0.0038876666221767664,-0.17980016767978668,0.10063314437866211,18.216049194335938,-0.12596194446086884,0.7833689451217651,-0.1100328341126442,0.7490143775939941,-0.01592911034822464,0.034354567527770996,0.9948666095733643,0.03786783665418625,1.0089999437332153,1,2200706,0,0.038232237100601196,0.0,2111531,0,0,0,0
0.6201752000051783,baseline,2221985371,2200715,410,17,8142,-109,-14,-10,3,28.203125,0.013184472918510437,-0.0019643402192741632,0.9939606785774231,-0.01938103698194027,0.017556749284267426,-0.01936904713511467,-0.1798081398010254,0.10077071189880371,18.216014862060547,-0.11323210597038269,0.7599585056304932,-0.11001273989677429,0.7491618394851685,-0.006486609578132629,0.007478296756744385,0.9940005540847778,0.009899546392261982,1.0089999437332153,1,2200716,0,0.010179697535932064,0.0,2111541,0,0,0,0
0.6303859000036027,baseline,2221995455,2200725,412,23,8139,-119,-11,-10,3,28.21875,0.013827178627252579,-0.002163494238629937,0.9942589998245239,-0.012616517953574657,-0.07048674672842026,-0.026556873694062233,-0.17977774143218994,0.10050958395004272,18.215740203857422,-0.13168492913246155,0.7953868508338928,-0.10997840017080307,0.7488614916801453,-0.021706528961658478,0.04652535915374756,0.9942998886108398,0.05133987218141556,1.0089999437332153,1,2200726,0,0.05167258530855179,0.0,2111551,0,0,0,0
0.6406817999959458,baseline,2222005538,2200735,418,21,8138,-107,-15,-10,1,28.265625,0.014530646614730358,-0.002328362548723817,0.9948015809059143,0.019290553405880928,0.017702121287584305,-0.051182009279727936,-0.1800309270620346,0.1006854772567749,18.215463638305664,-0.12959840893745422,0.8281243443489075,-0.11027248948812485,0.749102771282196,-0.019325919449329376,0.07902157306671143,0.9946095943450928,0.08135047554969788,1.0080000162124634,1,2200736,0,0.08179823309183121,0.0,2111561,0,0,0,0
0.650284700008342,baseline,2222014613,2200744,394,10,8142,-99,-13,-9,3,28.078125,0.01406150497496128,-0.002057490637525916,0.9936529994010925,-0.024849923327565193,-0.022421032190322876,-0.01519713457673788,-0.1800246387720108,0.10082417726516724,18.21521759033203,-0.11863835901021957,0.8107552528381348,-0.1102292388677597,0.7492074370384216,-0.00840912014245987,0.061547815799713135,0.9937546253204346,0.048288047313690186,1.0080000162124634,1,2200746,0,0.048688340932130814,0.0,2111571,0,0,0,0
0.6602780999965034,baseline,2222024697,2200755,404,20,8157,-133,-12,-11,1,28.15625,0.01435939036309719,-0.0022334211971610785,0.9942055344581604,0.03089038096368313,-0.04443347826600075,-0.06093047186732292,-0.18008452653884888,0.10101455450057983,18.2148380279541,-0.12871120870113373,0.8274679183959961,-0.11028911918401718,0.7493978142738342,-0.018422089517116547,0.07807010412216187,0.9943117499351501,0.08026456832885742,1.0080000162124634,1,2200756,0,0.08067973703145981,0.0,2111581,0,0,0,0
0.6703648999973666,baseline,2222034781,2200764,400,13,8142,-104,-9,-10,0,28.09375,0.013537943363189697,-0.0020330839324742556,0.9942011833190918,0.02764364890754223,-0.056366369128227234,-0.024748630821704865,-0.18020352721214294,0.10089743137359619,18.2144718170166,-0.11716639995574951,0.7801413536071777,-0.11040811985731125,0.7492806911468506,-0.006758280098438263,0.03086066246032715,0.9942954182624817,0.03159200772643089,1.0080000162124634,1,2200766,0,0.032423555850982666,0.0,2111591,0,0,0,0
0.6804225999949267,baseline,2222044864,2200774,402,3,8129,-122,-14,-9,4,28.171875,0.014184877276420593,-0.0011352378642186522,0.9933575987815857,-0.00894848071038723,-0.005603671073913574,-0.020705590024590492,-0.18023042380809784,0.10087090730667114,18.214202880859375,-0.06547924876213074,0.8181120753288269,-0.11043502390384674,0.7492541670799255,0.044955775141716,0.06885790824890137,0.9934595227241516,0.08223401755094528,1.0089999437332153,1,2200776,0,0.06798996031284332,0.0,2111601,0,0,0,0
0.6903237000078661,baseline,2222054948,2200784,398,20,8150,-107,-14,-9,2,28.109375,0.01378516387194395,-0.002348929177969694,0.9935001730918884,0.0058056022971868515,0.025474034249782562,-0.009711045771837234,-0.1803278625011444,0.10115963220596313,18.21416473388672,-0.13546396791934967,0.7872119545936584,-0.11053245514631271,0.7495428919792175,-0.024931512773036957,0.03766906261444092,0.9935967326164246,0.045172322541475296,1.0089999437332153,1,2200785,0,0.045552778989076614,0.0,2111611,0,0,0,0
0.7003123000031337,baseline,2222065032,2200794,394,3,8136,-113,-12,-9,2,28.078125,0.013919392600655556,-0.0017627886263653636,0.9938057661056519,-0.00014039967209100723,0.0014690924435853958,-0.041214413940906525,-0.1803528070449829,0.10149681568145752,18.213850021362305,-0.08217277377843857,0.7891137003898621,-0.11053682118654251,0.7498800754547119,0.028364047408103943,0.039233624935150146,0.9937798976898193,0.04841277375817299,1.0089999437332153,1,2200795,0,0.04875319451093674,0.0,2111620,0,0,0,0
0.7102847000060137,baseline,2222075115,2200804,398,16,8160,-126,-17,-11,1,28.109375,0.014214668422937393,-0.0021328486036509275,0.9947160482406616,0.019248783588409424,0.04242357611656189,-0.05436886474490166,-0.18027038872241974,0.10154026746749878,18.21339225769043,-0.11898400634527206,0.8238136172294617,-0.11047498881816864,0.7499235272407532,-0.008509017527103424,0.0738900899887085,0.9947878122329712,0.07437841594219208,1.0089999437332153,1,2200805,0,0.0748719871044159,0.0,2111630,0,0,0,0
0.7202714000013657,baseline,2222085199,2200814,396,23,8147,-111,-13,-9,1,28.09375,0.01412705797702074,-0.0019105580868199468,0.9947215914726257,0.03343597427010536,-0.054085612297058105,-0.02915351092815399,-0.18050353229045868,0.10167539119720459,18.213024139404297,-0.10932298004627228,0.8195487856864929,-0.11070813238620758,0.750058650970459,0.0013851523399353027,0.06949013471603394,0.9948104619979858,0.06950393319129944,1.0089999437332153,1,2200815,0,0.0698942020535469,0.0,2111640,0,0,0,0
0.7303681000048527,baseline,2222095283,2200824,408,23,8147,-107,-13,-8,3,28.1875,0.013047710992395878,-0.001892091822810471,0.9944612979888916,-0.021380871534347534,0.009924467653036118,-0.028944071382284164,-0.18046605587005615,0.10177695751190186,18.21265983581543,-0.11626430600881577,0.7496026158332825,-0.1106523796916008,0.7501695156097412,-0.005611926317214966,-0.0005668997764587402,0.9945363402366638,0.005640486720949411,1.0089999437332153,1,2200825,0,0.005600099917501211,0.0,2111650,0,0,0,0
0.7405004000029294,baseline,2222105367,2200834,398,1,8139,-129,-11,-9,2,28.109375,0.013589907437562943,-0.0011634655529633164,0.9937692284584045,0.0005404148250818253,-0.030314873903989792,-0.01792794093489647,-0.18034876883029938,0.10173696279525757,18.212509155273438,-0.05979403853416443,0.7987960577011108,-0.11055336892604828,0.750120222568512,0.05075933039188385,0.04867583513259888,0.9937897324562073,0.07032671570777893,1.0080000162124634,1,2200835,0,0.07061384618282318,0.0,2111660,0,0,0,0
0.7501757999998517,baseline,2222115451,2200844,388,7,8167,-112,-11,-8,2,28.03125,0.014529597945511341,-0.001833436544984579,0.9950511455535889,0.020424844697117805,-0.016571396961808205,-0.010069256648421288,-0.1804179549217224,0.10205316543579102,18.21234703063965,-0.10557051002979279,0.8365641236305237,-0.11062256246805191,0.7504444718360901,0.015116512775421143,0.0926867127418518,0.9952675700187683,0.0939113199710846,1.0080000162124634,1,2200845,0,0.09433934092521667,0.0,2111670,0,0,0,0
0.7603235999995377,baseline,2222125535,2200854,394,25,8156,-98,-15,-10,2,28.078125,0.013358984142541885,-0.00182819040492177,0.9944862127304077,-0.018353257328271866,0.0007054898887872696,-0.023968689143657684,-0.18010224401950836,0.10212045907974243,18.212329864501953,-0.10532823204994202,0.7443676590919495,-0.11029717326164246,0.7505244612693787,0.0027436986565589905,-0.006156802177429199,0.9948655962944031,0.006740482058376074,1.0080000162124634,1,2200855,0,0.006398382131010294,0.0,2111680,0,0,0,0
0.7704246000066632,baseline,2222135619,2200864,410,37,8151,-113,-11,-8,1,28.203125,0.012843171134591103,-0.002490753773599863,0.9952600598335266,0.02393268793821335,-0.06171438470482826,5.52227720618248e-05,-0.18010659515857697,0.10197389125823975,18.212072372436523,-0.1433890461921692,0.7234862446784973,-0.11034148186445236,0.7502843141555786,-0.041513822972774506,-0.0267980694770813,0.9953396320343018,0.04941188171505928,1.0080000162124634,1,2200865,0,0.04930821806192398,0.0,2111690,0,0,0,0
0.7800316000066232,baseline,2222144694,2200873,412,17,8146,-105,-15,-11,1,28.21875,0.013841206207871437,-0.002004594774916768,0.9945315718650818,0.004974116571247578,0.03580701723694801,-0.03966245800256729,-0.17997172474861145,0.10191529989242554,18.211957931518555,-0.11548618972301483,0.7973501682281494,-0.11017631739377975,0.7502985596656799,-0.005309872329235077,0.04705160856246948,0.9946299195289612,0.04735027626156807,1.0089999437332153,1,2200874,0,0.04780391603708267,0.0,2111699,0,0,0,0
0.7900482999975793,baseline,2222154778,2200883,410,7,8145,-108,-11,-11,4,28.203125,0.013775491155683994,-0.001920029055327177,0.9945471882820129,-0.0363476425409317,-0.028361771255731583,-0.04140478000044823,-0.17995840311050415,0.10202503204345703,18.211698532104492,-0.10421748459339142,0.7947953343391418,-0.11016301065683365,0.7504082918167114,0.00594552606344223,0.04438704252243042,0.9946961998939514,0.044783465564250946,1.0089999437332153,1,2200884,0,0.04512464627623558,0.0,2111709,0,0,0,0
0.8001050000020768,baseline,2222164861,2200893,412,20,8141,-122,-12,-6,3,28.21875,0.013311626389622688,-0.002048095455393195,0.9942158460617065,-0.024669507518410683,-0.06035847216844559,0.025869052857160568,-0.17987948656082153,0.10155856609344482,18.2117919921875,-0.12721461057662964,0.7693352103233337,-0.11008407920598984,0.7499418258666992,-0.0171305313706398,0.01939338445663452,0.9942185878753662,0.02587582729756832,1.0089999437332153,1,2200894,0,0.026124637573957443,0.0,2111719,0,0,0,0
0.810411300000851,baseline,2222174945,2200903,392,7,8142,-101,-13,-11,4,28.0625,0.01261637732386589,-0.0016308196354657412,0.9939113855361938,-0.026210147887468338,-0.021442845463752747,-0.06551803648471832,-0.17984649538993835,0.1013229489326477,18.211435317993164,-0.09401139616966248,0.7235113382339478,-0.11005108803510666,0.7497062087059021,0.016039691865444183,-0.026194870471954346,0.9939919710159302,0.030715515837073326,1.0089999437332153,1,2200904,0,0.03047177381813526,0.0,2111730,0,0,0,0
0.8202793999953428,baseline,2222185029,2200913,406,16,8142,-106,-13,-8,2,28.171875,0.012821083888411522,-0.0021260008215904236,0.9938013553619385,-0.010793939232826233,-0.004270071163773537,-0.0268651582300663,-0.1796242892742157,0.10127270221710205,18.210969924926758,-0.11428644508123398,0.7312479615211487,-0.10982780903577805,0.7496559619903564,-0.004458636045455933,-0.018408000469207764,0.9939380884170532,0.01894027180969715,1.0089999437332153,1,2200914,0,0.01861714757978916,0.0,2111739,0,0,0,0
0.8304215999960434,baseline,2222195113,2200923,400,14,8145,-116,-12,-10,3,28.125,0.013658463023602962,-0.0018356961663812399,0.9940158128738403,-0.007102894596755505,-0.0485280305147171,-0.0408526286482811,-0.1795959770679474,0.10131144523620605,18.210920333862305,-0.11246606707572937,0.790717363357544,-0.10980056971311569,0.7496947050094604,-0.002665497362613678,0.041022658348083496,0.9940934181213379,0.04110916331410408,1.0089999437332153,1,2200924,0,0.04147166758775711,0.0,2111749,0,0,0,0
0.8405001000064658,baseline,2222205197,2200933,400,14,8156,-100,-15,-10,4,28.125,0.012406433932483196,-0.001752842916175723,0.9945182204246521,-0.0256408229470253,0.013704521581530571,-0.07363034784793854,-0.1794033646583557,0.10127812623977661,18.210359573364258,-0.10056775063276291,0.7295103669166565,-0.10960795730352402,0.749661386013031,0.009040206670761108,-0.02015101909637451,0.9947534203529358,0.022085944190621376,1.0089999437332153,1,2200934,0,0.021775905042886734,0.0,2111759,0,0,0,0
0.8505629999999655,baseline,2222215281,2200943,402,25,8134,-111,-12,-8,2,28.140625,0.01369656901806593,-0.001763825537636876,0.994381308555603,-0.002242802642285824,-0.03552278131246567,-0.006588702090084553,-0.17928114533424377,0.10127323865890503,18.210002899169922,-0.10894878953695297,0.7789503931999207,-0.10948574542999268,0.7496564984321594,0.0005369558930397034,0.02929389476776123,0.9943787455558777,0.0292988158762455,1.0089999437332153,1,2200944,0,0.02966589853167534,0.0,2111769,0,0,0,0
0.8604484999959823,baseline,2222225365,2200953,386,6,8150,-118,-9,-8,1,28.015625,0.013074932619929314,-0.000985161168500781,0.9945089221000671,0.019090872257947922,-0.052008677273988724,-0.001000413205474615,-0.1792963147163391,0.10142368078231812,18.2099609375,-0.06336361169815063,0.7585960626602173,-0.10950443893671036,0.7497074007987976,0.04614082723855972,0.008888661861419678,0.9947125315666199,0.04698919132351875,1.0080000162124634,1,2200954,0,0.047062985599040985,0.0,2111779,0,0,0,0
0.8704341999982717,baseline,2222235449,2200963,408,12,8149,-98,-12,-8,2,28.1875,0.013017167337238789,-0.001569648738950491,0.9948453903198242,-0.001284206286072731,-0.03818533197045326,-0.03511986881494522,-0.17919866740703583,0.10106110572814941,18.209651947021484,-0.09501933306455612,0.7478360533714294,-0.10938885807991028,0.7494001984596252,0.014369525015354156,-0.0015641450881958008,0.994916558265686,0.014454404823482037,1.0080000162124634,1,2200964,0,0.014445694163441658,0.0,2111789,0,0,0,0
0.8805185999954119,baseline,2222245533,2200973,404,7,8146,-111,-13,-9,3,28.15625,0.013405085541307926,-0.001597068039700389,0.9940914511680603,0.0005136774852871895,0.005479880608618259,-0.022642361000180244,-0.1793053150177002,0.10097402334213257,18.209396362304688,-0.08749552816152573,0.7728031873703003,-0.1095132902264595,0.749355137348175,0.022017762064933777,0.023448050022125244,0.9941521286964417,0.03216508775949478,1.0080000162124634,1,2200974,0,0.03244736045598984,0.0,2111799,0,0,0,0
0.8904068999981973,baseline,2222255616,2200983,392,13,8139,-133,-16,-9,5,28.0625,0.014490699395537376,-0.0014561363495886326,0.9940517544746399,-0.04065961390733719,0.0123297069221735,-0.015314290300011635,-0.17939774692058563,0.10113704204559326,18.209142684936523,-0.083929643034935,0.835163950920105,-0.10958530008792877,0.7495906352996826,0.007711157202720642,0.09714245796203613,0.9940598607063293,0.09744802862405777,1.0080000162124634,1,2200984,0,0.09794643521308899,0.0,2111809,0,0,0,0
0.9004300999949919,baseline,2222264691,2200993,388,22,8143,-111,-13,-9,3,28.03125,0.013717339374125004,-0.0021591493859887123,0.9941501617431641,-0.01655583456158638,0.005113103426992893,-0.04415301978588104,-0.17942267656326294,0.10147976875305176,18.20866584777832,-0.12443789839744568,0.7905183434486389,-0.10962727665901184,0.7498630285263062,-0.014810621738433838,0.05589789152145386,0.9941715598106384,0.05624688044190407,1.0089999437332153,1,2200994,0,0.05666838213801384,0.0,2111819,0,0,0,0
0.9104944999999134,baseline,2222274775,2201003,410,7,8132,-108,-15,-7,3,28.203125,0.013149702921509743,-0.0016602203249931335,0.9934784770011902,-0.01808565855026245,0.01838792860507965,-0.006158581003546715,-0.1792421042919159,0.10142141580581665,18.208322525024414,-0.09574795514345169,0.7583228945732117,-0.1094466969370842,0.749804675579071,0.013698741793632507,0.008518218994140625,0.9935668706893921,0.022912414744496346,1.0089999437332153,1,2201004,0,0.022805524989962578,0.0,2111829,0,0,0,0
0.9202668000070844,baseline,2222284859,2201012,404,14,8150,-114,-16,-8,4,28.15625,0.013388482853770256,-0.0022131444420665503,0.9940130710601807,-0.0038550705648958683,0.02612205781042576,0.011480591259896755,-0.1794067621231079,0.10109257698059082,18.208459854125977,-0.1275673657655716,0.7716752886772156,-0.10961135476827621,0.7494758367538452,-0.01795601099729538,0.02219945192337036,0.9941056966781616,0.028552303090691566,1.0080000162124634,1,2201013,0,0.028886819258332253,0.0,2111839,0,0,0,0
0.9306199999991804,baseline,2222294943,2201022,400,9,8146,-104,-14,-9,2,28.125,0.013437374494969845,-0.001848349580541253,0.9941025972366333,0.0028988674748688936,-0.022472810000181198,-0.03966648131608963,-0.17939835786819458,0.10135406255722046,18.208242416381836,-0.10653077065944672,0.7744237184524536,-0.10960295796394348,0.7497373223304749,0.003072187304496765,0.02468639612197876,0.9941951632499695,0.024876825511455536,1.0080000162124634,1,2201024,0,0.04581258073449135,0.0,2111849,0,0,0,0
0.9402134999982081,baseline,2222305026,2201032,404,14,8154,-113,-13,-5,2,28.234375,0.012900247238576412,-0.0019229896133765578,0.9941978454589844,0.018802007660269737,-0.023925308138132095,0.06239798665046692,-0.17944958806037903,0.10097259283065796,18.208274841308594,-0.11082205176353455,0.7434002161026001,-0.10965419560670853,0.7493558526039124,-0.0011678561568260193,-0.005955636501312256,0.9942833781242371,0.006069060415029526,1.0080000162124634,1,2201034,0,0.01979871280491352,0.0,2111859,0,0,0,0
0.9502510000020266,baseline,2222315110,2201042,402,23,8148,-100,-13,-8,2,28.140625,0.013088032603263855,-0.002627564361318946,0.9941344261169434,-0.006459984928369522,-0.024043267592787743,0.01512177474796772,-0.1795666515827179,0.10073494911193848,18.208585739135742,-0.14080259203910828,0.7461862564086914,-0.10977569222450256,0.7491034269332886,-0.031026899814605713,-0.002917170524597168,0.9942614436149597,0.031163735315203667,1.0089999437332153,1,2201043,0,0.031154915690422058,0.0,2111868,0,0,0,0
0.9605160000064643,baseline,2222325194,2201052,412,25,8141,-93,-17,-10,4,28.21875,0.01250099390745163,-0.0024173378478735685,0.9942772388458252,-0.02650926634669304,0.03749570995569229,-0.03507235646247864,-0.17960551381111145,0.10075020790100098,18.208494186401367,-0.12836366891860962,0.7187661528587341,-0.10981011390686035,0.7491334676742554,-0.018553555011749268,-0.03036731481552124,0.9943579435348511,0.035586629062891006,1.0089999437332153,1,2201053,0,0.035270169377326965,0.0,2111878,0,0,0,0
0.9704152000049362,baseline,2222335278,2201062,396,13,8140,-111,-14,-9,1,28.09375,0.013040492311120033,-0.0012213016161695123,0.9934524297714233,0.007755354978144169,-0.005948788486421108,-0.03983980417251587,-0.17943941056728363,0.10070139169692993,18.208097457885742,-0.0905124768614769,0.7453994750976562,-0.10964372009038925,0.7490816712379456,0.019131243228912354,-0.0036821961402893066,0.9937243461608887,0.019482377916574478,1.0089999437332153,1,2201063,0,0.019428664818406105,0.0,2111888,0,0,0,0
0.9804601000068942,baseline,2222345362,2201072,400,23,8139,-118,-10,-9,2,28.125,0.013713068328797817,-0.0023924948181957006,0.9943022131919861,0.009159405715763569,-0.03946645185351372,-0.011018389835953712,-0.1795712113380432,0.10067647695541382,18.208003997802734,-0.13158850371837616,0.8007467985153198,-0.10979671031236649,0.7490209937095642,-0.021791793406009674,0.051725804805755615,0.9946280121803284,0.056128792464733124,1.0089999437332153,1,2201073,0,0.05647249519824982,0.0,2111898,0,0,0,0
0.9904481999983545,baseline,2222355446,2201082,392,27,8131,-115,-14,-11,2,28.0625,0.013652234338223934,-0.00208248570561409,0.994053065776825,-0.0004322524182498455,-0.022973142564296722,-0.022480525076389313,-0.179491326212883,0.10059493780136108,18.20798110961914,-0.11439468711614609,0.7859734296798706,-0.10968147218227386,0.7489945888519287,-0.004713214933872223,0.036978840827941895,0.9940657019615173,0.03727799654006958,1.0080000162124634,1,2201083,0,0.03767790645360947,0.0,2111908,0,0,0,0
1.0004231000057189,baseline,2222365529,2201092,416,22,8146,-105,-11,-8,3,28.25,0.013114101253449917,-0.002095117000862956,0.9945559501647949,-0.0036437720991671085,-0.03178604692220688,-0.012204979546368122,-0.1793363094329834,0.10060358047485352,18.207637786865234,-0.12069827318191528,0.7554501891136169,-0.10951526463031769,0.7489221096038818,-0.0076673030853271484,-0.010601699352264404,0.9945360422134399,0.013083714060485363,1.0080000162124634,1,2201093,0,0.012834985740482807,0.0,2111918,0,0,0,0
1.0105684000009205,baseline,2222375611,2201102,400,2,8149,-95,-14,-8,3,28.125,0.012149864807724953,-0.00143334805034101,0.9944220781326294,-0.008349893614649773,0.00358580076135695,0.03410448133945465,-0.1790875345468521,0.10013705492019653,18.207805633544922,-0.06837759912014008,0.7139714360237122,-0.10926928371191025,0.7484980225563049,0.04089168459177017,-0.03452658653259277,0.9944165945053101,0.05351836234331131,1.0080000162124634,1,2201103,0,0.05334813520312309,0.0,2111928,0,0,0,0
1.020402299996931,baseline,2222384686,2201112,384,31,8152,-104,-11,-10,1,28.0,0.013434316031634808,-0.0019208701560273767,0.9943910837173462,0.004205324687063694,0.005120757967233658,-0.036864783614873886,-0.1789257675409317,0.10029184818267822,18.207626342773438,-0.11067839711904526,0.7740228176116943,-0.1091303676366806,0.7486751079559326,-0.0015480294823646545,0.02534770965576172,0.9944837093353271,0.015038439072668552,1.0089999437332153,1,2201113,0,0.01522910688072443,0.0,2111938,0,0,0,0
1.0304656000080286,baseline,2222394770,2201121,394,17,8135,-104,-13,-8,1,28.234375,0.01335276197642088,-0.0019498661858960986,0.9935588836669922,0.028013670817017555,-0.0013846727088093758,0.0029868469573557377,-0.17910483479499817,0.10031896829605103,18.20722198486328,-0.1124432161450386,0.7699688076972961,-0.10930942744016647,0.7487022280693054,-0.0031337887048721313,0.021266579627990723,0.993650496006012,0.021496232599020004,1.0089999437332153,1,2201123,0,0.02230978012084961,0.0,2111948,0,0,0,0
1.0405102000077022,baseline,2222404854,2201132,410,12,8139,-122,-12,-9,4,28.203125,0.014673443511128426,-0.001164973946288228,0.9939405918121338,-0.028340252116322517,0.0013125520199537277,-0.008239421993494034,-0.17899766564369202,0.10056352615356445,18.20732879638672,-0.06715497374534607,0.8457897305488586,-0.10920227319002151,0.7489467859268188,0.042047299444675446,0.0968429446220398,0.9940495491027832,0.11281511932611465,1.0080000162124634,1,2201133,0,0.11327394843101501,0.0,2111958,0,0,0,0
1.050365500006592,baseline,2222414938,2201141,412,17,8131,-125,-13,-9,1,28.21875,0.015180972404778004,-0.0018654699670150876,0.9933752417564392,0.024706995114684105,-0.005132776685059071,-0.01884799264371395,-0.17916515469551086,0.1008681058883667,18.20732879638672,-0.117331363260746,0.86620032787323,-0.10936976224184036,0.7492513656616211,-0.00796160101890564,0.11694896221160889,0.9934908747673035,0.11721964925527573,1.0080000162124634,1,2201142,0,0.11771561950445175,0.0,2111967,0,0,0,0
1.060345599995344,baseline,2222425020,2201151,402,16,8150,-117,-15,-9,3,28.140625,0.014089253731071949,-0.0021422170102596283,0.9942349791526794,-0.0164252370595932,0.02673410251736641,-0.007963446900248528,-0.17927753925323486,0.10149502754211426,18.2071590423584,-0.13508731126785278,0.8157268166542053,-0.10948214679956436,0.7498782873153687,-0.02560516446828842,0.06584852933883667,0.9945171475410461,0.07065163552761078,1.0069999694824219,1,2201152,0,0.07109836488962173,0.0,2111977,0,0,0,0
1.0703269000077853,baseline,2222435103,2201161,416,20,8140,-107,-13,-9,1,28.25,0.01371025014668703,-0.0022915350273251534,0.9940112829208374,0.011969163082540035,-0.013664850033819675,0.007644008845090866,-0.17938962578773499,0.10170364379882812,18.207183837890625,-0.1267455518245697,0.7964698076248169,-0.10959423333406448,0.7500869035720825,-0.01715131849050522,0.046382904052734375,0.9942270517349243,0.049452416598796844,1.0080000162124634,1,2201162,0,0.049843497574329376,0.0,2111987,0,0,0,0
1.0803372000082163,baseline,2222445187,2201171,408,14,8131,-118,-11,-9,1,28.1875,0.013532350771129131,-0.002173675922676921,0.9934146404266357,0.02304021269083023,-0.06083250418305397,-0.02075500227510929,-0.17972877621650696,0.10156697034835815,18.206872940063477,-0.12113144248723984,0.7907369136810303,-0.10996873676776886,0.7499502301216125,-0.011162705719470978,0.040786683559417725,0.9933942556381226,0.04228663444519043,1.0080000162124634,1,2201172,0,0.04267813637852669,0.0,2111997,0,0,0,0
1.0903672999993432,baseline,2222455271,2201181,404,12,8139,-112,-13,-9,3,28.15625,0.013750271871685982,-0.0019255403894931078,0.99391770362854,0.00513139832764864,-0.025449702516198158,-0.013768523931503296,-0.18000108003616333,0.10181671380996704,18.206626892089844,-0.0933978408575058,0.7941352725028992,-0.1101837307214737,0.7502180933952332,0.016785889863967896,0.043917179107666016,0.9939917922019958,0.04701579362154007,1.0080000162124634,1,2201182,0,0.04741179570555687,0.0,2112007,0,0,0,0
1.1004112000082387,baseline,2222465353,2201191,404,17,8150,-113,-12,-9,2,28.15625,0.013598380610346794,-0.001665895921178162,0.9942445755004883,0.009221997112035751,-0.04993147403001785,0.00043238792568445206,-0.17993959784507751,0.10171711444854736,18.20661735534668,-0.1097509115934372,0.7907209396362305,-0.11015384644269943,0.7500695586204529,0.00040293484926223755,0.04065138101577759,0.9946343898773193,0.040653377771377563,1.0080000162124634,1,2201192,0,0.041013527661561966,0.0,2112017,0,0,0,0
1.1101906999974744,baseline,2222475436,2201201,396,10,8135,-124,-12,-10,3,28.09375,0.013549895957112312,-0.002080161590129137,0.9944120049476624,-0.011578910052776337,-0.023628193885087967,-0.03449930250644684,-0.18012173473834991,0.10160917043685913,18.206396102905273,-0.11985405534505844,0.7806645035743713,-0.11032633483409882,0.7499806880950928,-0.0028332099318504333,0.04317086935043335,0.9942338466644287,0.04326373711228371,1.0080000162124634,1,2201202,0,0.04364331066608429,0.0,2112027,0,0,0,0
1.1202054000023054,baseline,2222485520,2201211,412,16,8131,-117,-11,-8,1,28.21875,0.014015443623065948,-0.0022496513556689024,0.9937646389007568,0.014756672084331512,-0.09131491184234619,-0.008621221408247948,-0.1800568699836731,0.10130399465560913,18.2061710357666,-0.1297040581703186,0.8080086708068848,-0.110261470079422,0.7496872544288635,-0.019442588090896606,0.07105445861816406,0.9936186671257019,0.07192575186491013,1.0080000162124634,1,2201212,0,0.07229338586330414,0.0,2112037,0,0,0,0
1.1303245000017341,baseline,2222495604,2201221,402,24,8144,-109,-11,-8,0,28.140625,0.014366504736244678,-0.0020987591706216335,0.9943003058433533,0.019707631319761276,-0.057827405631542206,-0.017987225204706192,-0.18016155064105988,0.10090315341949463,18.205930709838867,-0.12093918770551682,0.8277992606163025,-0.11036615073680878,0.7492694854736328,-0.011437922716140747,0.05773442983627319,0.9943370819091797,0.058856524527072906,1.0080000162124634,1,2201222,0,0.059243738651275635,0.0,2112047,0,0,0,0
1.1400471999950241,baseline,2222504679,2201230,408,7,8137,-105,-14,-8,3,28.1875,0.013422047719359398,-0.0020291018299758434,0.994023323059082,-0.0024441825225949287,-0.015622172504663467,-0.00863328855484724,-0.18032357096672058,0.10101521015167236,18.20577049255371,-0.11695782840251923,0.7747696042060852,-0.11052816361188889,0.7493984699249268,-0.006429664790630341,0.025371134281158447,0.9941163063049316,0.026173174381256104,1.0089999437332153,1,2201231,0,0.02654102072119713,0.0,2112057,0,0,0,0
1.1503820000070846,baseline,2222514763,2201240,400,23,8138,-114,-14,-9,2,28.125,0.013558011502027512,-0.0020944259595125914,0.9937346577644348,-0.0005371537990868092,-0.020094795152544975,-0.009913334622979164,-0.18042975664138794,0.10099923610687256,18.205564498901367,-0.12075818330049515,0.7816643118858337,-0.11063434928655624,0.749382495880127,-0.010123834013938904,0.03228181600570679,0.9938293695449829,0.03383205085992813,1.0089999437332153,1,2201242,0,0.03720005601644516,0.0,2112067,0,0,0,0
1.1601439000078244,baseline,2222524847,2201250,400,30,8144,-116,-11,-9,2,28.125,0.013572092168033123,-0.002753918059170246,0.9939453601837158,-0.00728699192404747,-0.06367737799882889,-0.027808569371700287,-0.18055880069732666,0.10055738687515259,18.20527458190918,-0.16927514970302582,0.7842966914176941,-0.11076340079307556,0.748940646648407,-0.058511748909950256,0.03535604476928711,0.994093120098114,0.06836427748203278,1.0080000162124634,1,2201251,0,0.0686095580458641,0.0,2112076,0,0,0,0
1.1703266999975313,baseline,2222534931,2201260,400,13,8135,-115,-15,-11,5,28.125,0.014152913354337215,-0.0026700717862695456,0.9940647482872009,-0.04451325908303261,0.019210128113627434,-0.028053417801856995,-0.1808299720287323,0.10053467750549316,18.205162048339844,-0.15389688313007355,0.8156858086585999,-0.1110345721244812,0.7489179372787476,-0.042862311005592346,0.0667678713798523,0.9941690564155579,0.0793418362736702,1.0080000162124634,1,2201261,0,0.07973042875528336,0.0,2112087,0,0,0,0
1.1802886000077706,baseline,2222545014,2201270,396,20,8134,-122,-11,-10,1,28.09375,0.014603331685066223,-0.0029193207155913115,0.993657112121582,0.011555694043636322,-0.012615406885743141,-0.028826789930462837,-0.181060791015625,0.10118311643600464,18.204999923706055,-0.16285473108291626,0.8368676900863647,-0.11131343990564346,0.749566376209259,-0.0515412911772728,0.08730131387710571,0.9937083125114441,0.10138058662414551,1.0080000162124634,1,2201271,0,0.10180678963661194,0.0,2112096,0,0,0,0
1.1903159000066807,baseline,2222555098,2201280,394,21,8138,-120,-10,-8,2,28.078125,0.014634928666055202,-0.0024061142466962337,0.993552029132843,0.01960376277565956,-0.04259740188717842,-0.01667819172143936,-0.18144065141677856,0.10157138109207153,18.204837799072266,-0.13687162101268768,0.8419560790061951,-0.11166456341743469,0.7499546408653259,-0.02520705759525299,0.09200143814086914,0.9934650659561157,0.0953921377658844,1.0080000162124634,1,2201281,0,0.09581106901168823,0.0,2112106,0,0,0,0
1.2002024999965215,baseline,2222565182,2201290,396,22,8135,-112,-17,-9,4,28.09375,0.013503086753189564,-0.0024114884436130524,0.9935961365699768,-0.02354130707681179,0.04819555580615997,-0.020800543949007988,-0.18170127272605896,0.1017637848854065,18.204612731933594,-0.15272453427314758,0.7924046516418457,-0.11189381778240204,0.7502138018608093,-0.040830716490745544,0.04219084978103638,0.9937229156494141,0.05871298909187317,1.0080000162124634,1,2201291,0,0.05905154347419739,0.0,2112116,0,0,0,0
1.2103131000039866,baseline,2222575267,2201300,412,25,8141,-97,-14,-9,3,28.21875,0.013355698436498642,-0.0025523232761770487,0.994210422039032,-0.019689863547682762,0.02802697941660881,-0.04426361247897148,-0.18149250745773315,0.10229462385177612,18.20425033569336,-0.14942365884780884,0.7848011255264282,-0.11169657856225967,0.7507066130638123,-0.037727080285549164,0.03409451246261597,0.9942960143089294,0.05085045099258423,1.0069999694824219,1,2201301,0,0.05114533752202988,0.0,2112126,0,0,0,0
1.2203640000079758,baseline,2222585350,2201310,402,10,8153,-103,-13,-7,2,28.140625,0.013266165740787983,-0.001705111819319427,0.9942695498466492,-0.0186118483543396,0.012875095009803772,0.014218684285879135,-0.18138709664344788,0.1023942232131958,18.204179763793945,-0.09383154660463333,0.7636759877204895,-0.11157353967428207,0.750754714012146,0.017741993069648743,0.012921273708343506,0.9943581223487854,0.021948523819446564,1.0080000162124634,1,2201311,0,0.022179333493113518,0.0,2112136,0,0,0,0
1.2305046999972546,baseline,2222595434,2201320,416,13,8137,-117,-13,-10,3,28.25,0.013191637583076954,-0.0018396773375570774,0.9940453767776489,0.0006787115707993507,-0.01631857641041279,-0.022801335901021957,-0.18141737580299377,0.10235971212387085,18.204269409179688,-0.11265195161104202,0.7401389479637146,-0.11161639541387558,0.7507297396659851,-0.0010355561971664429,-0.010590791702270508,0.9941453337669373,0.010641299188137054,1.0080000162124634,1,2201321,0,0.010297561064362526,0.0,2112146,0,0,0,0
1.2404740000056336,baseline,2222605518,2201330,404,8,8135,-117,-13,-9,1,28.15625,0.013533510267734528,-0.002393239876255393,0.9935223460197449,0.01884041354060173,-0.02304697409272194,-0.03132263943552971,-0.1814432144165039,0.10213780403137207,18.20401954650879,-0.13062340021133423,0.791621208190918,-0.11167396605014801,0.7505393624305725,-0.018949434161186218,0.04108184576034546,0.9937565922737122,0.04524156451225281,1.0080000162124634,1,2201331,0,0.045629821717739105,0.0,2112156,0,0,0,0
1.250142799995956,baseline,2222614593,2201339,416,3,8149,-120,-14,-8,3,28.125,0.014190691523253918,-0.0013531562872231007,0.9941413998603821,-0.015525178983807564,-0.014918883331120014,0.006340896710753441,-0.18136119842529297,0.10226213932037354,18.204021453857422,-0.07798699289560318,0.8178019523620605,-0.11156580597162247,0.7506453990936279,0.03357881307601929,0.06715655326843262,0.9942436218261719,0.07508355379104614,1.0069999694824219,1,2201341,0,0.06761268526315689,0.0,2112166,0,0,0,0
1.2603803999954835,baseline,2222625681,2201350,412,21,8154,-122,-11,-10,1,28.21875,0.013871964998543262,-0.0020802663639187813,0.9944849610328674,0.00269416905939579,-0.009030928835272789,-0.019898924976587296,-0.1811748594045639,0.10248488187789917,18.203872680664062,-0.11985129117965698,0.7991591691970825,-0.1113794595003128,0.7508681416511536,-0.008471831679344177,0.05308049917221069,0.9946852326393127,0.05343715846538544,1.0080000162124634,1,2201351,0,0.05382934585213661,0.0,2112176,0,0,0,0
1.2700752999953693,baseline,2222634756,2201359,392,17,8157,-109,-10,-9,4,28.0625,0.012751470319926739,-0.0017293752171099186,0.9946870803833008,-0.035384438931941986,-0.045529965311288834,-0.01307130791246891,-0.18105998635292053,0.10251510143280029,18.203718185424805,-0.11058065295219421,0.7662882804870605,-0.11126459389925003,0.7508983612060547,0.0006839409470558167,0.01538991928100586,0.9947779178619385,0.015405109152197838,1.0089999437332153,1,2201360,0,0.01574363000690937,0.0,2112185,0,0,0,0
1.280092800006969,baseline,2222644840,2201369,402,6,8157,-103,-14,-10,2,28.140625,0.013534363359212875,-0.0016127204289659858,0.9948438405990601,0.0008070538751780987,-0.009349852800369263,-0.04458886384963989,-0.18097685277462006,0.10247129201889038,18.203493118286133,-0.09375793486833572,0.7895870804786682,-0.11118145287036896,0.7508545517921448,0.017423518002033234,0.03873252868652344,0.9949636459350586,0.0424710214138031,1.0089999437332153,1,2201370,0,0.04283779487013817,0.0,2112195,0,0,0,0
1.29015800000343,baseline,2222654924,2201379,414,19,8145,-82,-15,-6,4,28.234375,0.0129300057888031,-0.0015127536607906222,0.9941250085830688,-0.02228057011961937,-0.031131654977798462,0.03719627484679222,-0.18085071444511414,0.10242652893066406,18.20330810546875,-0.09344512969255447,0.7229557037353516,-0.11105532199144363,0.7508097887039185,0.01761019229888916,-0.027854084968566895,0.9941886067390442,0.03295404091477394,1.0080000162124634,1,2201380,0,0.03268979489803314,0.0,2112205,0,0,0,0
1.3003203999978723,baseline,2222665007,2201389,394,6,8155,-111,-12,-8,2,28.078125,0.013669741339981556,-0.0018220931524410844,0.9944616556167603,0.021267365664243698,-0.03226032853126526,-0.01338564045727253,-0.1808013916015625,0.10256224870681763,18.203197479248047,-0.09948156774044037,0.7864128351211548,-0.1110059842467308,0.750945508480072,0.011524416506290436,0.035467326641082764,0.9945833683013916,0.03729267418384552,1.0089999437332153,1,2201390,0,0.0376400388777256,0.0,2112215,0,0,0,0
1.310505600005854,baseline,2222675091,2201399,400,32,8143,-110,-12,-9,3,28.125,0.013103489764034748,-0.002534335944801569,0.9944931864738464,-0.028524139896035194,-0.0068958960473537445,-0.0473114512860775,-0.1808270812034607,0.10229641199111938,18.202957153320312,-0.14601048827171326,0.7478111386299133,-0.11103168874979019,0.7506796717643738,-0.034978799521923065,-0.0028685331344604492,0.9945811629295349,0.03509622439742088,1.0089999437332153,1,2201400,0,0.04084165394306183,0.0,2112226,0,0,0,0
1.3204251999995904,baseline,2222685175,2201409,408,25,8151,-118,-13,-9,3,28.1875,0.012665403075516224,-0.0030873622745275497,0.9944943189620972,-0.007693109568208456,-0.024368971586227417,0.0019368939101696014,-0.1811523735523224,0.10173040628433228,18.202686309814453,-0.1809096783399582,0.7534131407737732,-0.11135698109865189,0.7501136660575867,-0.0695526972413063,0.0032994747161865234,0.994490385055542,0.06963091343641281,1.0089999437332153,1,2201410,0,0.06971012055873871,0.0,2112235,0,0,0,0
1.3301876000041375,baseline,2222695259,2201419,396,16,8142,-104,-11,-11,3,28.09375,0.013732850551605225,-0.0021685990504920483,0.9940313696861267,-0.01525645051151514,-0.029778478667140007,-0.037737488746643066,-0.18122953176498413,0.1020348072052002,18.20270347595215,-0.12190011143684387,0.7975677251815796,-0.11143360286951065,0.750393807888031,-0.010466508567333221,0.047173917293548584,0.9942247271537781,0.04832107573747635,1.0089999437332153,1,2201420,0,0.0486847348511219,0.0,2112245,0,0,0,0
1.3404725000000326,baseline,2222705343,2201429,414,25,8139,-105,-14,-9,3,28.234375,0.0138808349147439,-0.0019202695693820715,0.9939326047897339,-0.017034007236361504,0.03688317537307739,-0.028461575508117676,-0.1810837984085083,0.10270804166793823,18.202037811279297,-0.11657539010047913,0.7848145961761475,-0.1112883985042572,0.7510913014411926,-0.005286991596221924,0.033723294734954834,0.9940279126167297,0.03413521498441696,1.0089999437332153,1,2201430,0,0.03456985577940941,0.0,2112255,0,0,0,0
1.3502767000027234,baseline,2222715427,2201439,404,25,8153,-111,-12,-6,2,28.15625,0.012891942635178566,-0.0017361714271828532,0.99453204870224,0.025514919310808182,-0.013807915151119232,0.04203486815094948,-0.18099357187747955,0.10264319181442261,18.202146530151367,-0.10002211481332779,0.7426722645759583,-0.11119817197322845,0.7509966492652893,0.00027804821729660034,-0.026831626892089844,0.9945899844169617,0.0268330667167902,1.0080000162124634,1,2201440,0,0.026515023782849312,0.0,2112265,0,0,0,0
1.3601888999983203,baseline,2222725511,2201449,408,19,8142,-121,-15,-9,2,28.1875,0.012288014404475689,-0.0017388130072504282,0.994530975818634,0.015551678836345673,0.02319297194480896,-0.009966330602765083,-0.1810409426689148,0.10258364677429199,18.20220375061035,-0.10017440468072891,0.7306959629058838,-0.11125414073467255,0.7509648203849792,0.011334389448165894,-0.02026885747909546,0.9944352507591248,0.023222725838422775,1.0080000162124634,1,2201450,0,0.02291681244969368,0.0,2112275,0,0,0,0
1.3702369999955408,baseline,2222735595,2201459,390,32,8130,-98,-13,-9,2,28.046875,0.012619255110621452,-0.002334690885618329,0.9935706853866577,-0.010366464033722878,-0.023612676188349724,-0.020790021866559982,-0.18108206987380981,0.10223662853240967,18.201900482177734,-0.13463328778743744,0.7276676297187805,-0.11128666996955872,0.7506198883056641,-0.031039990484714508,-0.022061824798583984,0.993434727191925,0.03808156028389931,1.0080000162124634,1,2201460,0,0.03792411461472511,0.0,2112285,0,0,0,0
1.380547499997192,baseline,2222745677,2201469,404,-2,8146,-104,-14,-8,1,28.15625,0.01237332634627819,-0.0015408705221489072,0.9941647052764893,0.020293734967708588,-0.011602073907852173,0.010046140290796757,-0.18107783794403076,0.10186415910720825,18.20176124572754,-0.08254287391901016,0.7272777557373047,-0.11128515750169754,0.7502206563949585,0.028742283582687378,-0.02294290065765381,0.9940871000289917,0.03677628934383392,1.0089999437332153,1,2201470,0,0.03658610209822655,0.0,2112295,0,0,0,0
1.390520100001595,baseline,2222755761,2201479,406,0,8137,-97,-12,-9,3,28.171875,0.012554015032947063,-0.0011826547561213374,0.9937833547592163,-0.015703679993748665,0.01195625588297844,-0.014114485122263432,-0.18096522986888885,0.10164177417755127,18.20161247253418,-0.0681849792599678,0.7237526774406433,-0.11116982996463776,0.7499849796295166,0.04929810389876366,0.0006559491157531738,0.9939646124839783,0.049302466213703156,1.0089999437332153,1,2201480,0,0.049377668648958206,0.0,2112305,0,0,0,0
1.400649200004409,baseline,2222765845,2201489,414,23,8146,-123,-13,-9,4,28.234375,0.013562514446675777,-0.0018340374808758497,0.9942482709884644,-0.003261508420109749,-0.007881538942456245,-0.010588474571704865,-0.18080517649650574,0.10157161951065063,18.20146942138672,-0.10569038987159729,0.781520426273346,-0.11100976914167404,0.749954879283905,0.00869092345237732,0.028034508228302002,0.9944406151771545,0.02935073710978031,1.0089999437332153,1,2201490,0,0.029713498428463936,0.0,2112315,0,0,0,0
1.41017400000419,baseline,2222774920,2201498,384,13,8147,-108,-14,-9,3,28.0,0.013614709489047527,-0.0019829992670565844,0.9942048192024231,-0.011601311154663563,0.015558566898107529,-0.011732347309589386,-0.18067678809165955,0.10184764862060547,18.201370239257812,-0.11733895540237427,0.8028311729431152,-0.1108909398317337,0.7502309083938599,-0.006448015570640564,0.05260026454925537,0.994429886341095,0.052994005382061005,1.0089999437332153,1,2201499,0,0.053421106189489365,0.0,2112324,0,0,0,0
1.4200835000083316,baseline,2222785004,2201508,400,14,8147,-92,-14,-9,2,28.125,0.013407658785581589,-0.002371614333242178,0.9945788979530334,0.0043916720896959305,-0.0015858388505876064,-0.028725454583764076,-0.18099209666252136,0.10162204504013062,18.201068878173828,-0.13169677555561066,0.7625561356544495,-0.1112033873796463,0.7500030994415283,-0.020493388175964355,0.012553036212921143,0.9945807456970215,0.024032428860664368,1.0089999437332153,1,2201509,0,0.02424337901175022,0.0,2112334,0,0,0,0
1.4304589999956079,baseline,2222795087,2201518,410,17,8149,-114,-17,-10,2,28.203125,0.013016915880143642,-0.002226821146905422,0.9946947693824768,0.01484659779816866,0.08367302268743515,-0.024021605029702187,-0.1811726838350296,0.1018795371055603,18.201053619384766,-0.11573649197816849,0.7356967329978943,-0.1113772839307785,0.7502627968788147,-0.004359208047389984,-0.01456606388092041,0.9947296380996704,0.015204370953142643,1.0080000162124634,1,2201519,0,0.014795772731304169,0.0,2112344,0,0,0,0
1.4401427999982843,baseline,2222805171,2201528,404,14,8154,-125,-16,-10,4,28.15625,0.013250968419015408,-0.002275788923725486,0.99449622631073,-0.02207816019654274,0.05472808703780174,-0.007428715005517006,-0.181234672665596,0.10220319032669067,18.201051712036133,-0.12594009935855865,0.7917883396148682,-0.11142537742853165,0.7506673336029053,-0.014514721930027008,0.04112100601196289,0.9945565462112427,0.043607503175735474,1.0080000162124634,1,2201529,0,0.044051673263311386,0.0,2112354,0,0,0,0
1.4501588999992236,baseline,2222815254,2201538,402,18,8146,-97,-12,-9,2,28.140625,0.013258619233965874,-0.0025896509177982807,0.9939637780189514,0.02245645597577095,-0.04178127646446228,0.0069846054539084435,-0.18144196271896362,0.10239052772521973,18.201007843017578,-0.14927679300308228,0.7746339440345764,-0.11168655008077621,0.7507091760635376,-0.0217154398560524,0.02392476797103882,0.9941434860229492,0.03231029212474823,1.0089999437332153,1,2201539,0,0.03257989510893822,0.0,2112364,0,0,0,0
1.4601894999941578,baseline,2222825338,2201548,402,18,8143,-119,-12,-8,2,28.140625,0.013904963620007038,-0.0019205431453883648,0.9937162399291992,0.007964227348566055,-0.08064403384923935,-0.003672979772090912,-0.1816711723804474,0.10177779197692871,18.20083236694336,-0.11073470860719681,0.801679790019989,-0.1119101345539093,0.7501239776611328,-0.009167894721031189,0.048300981521606445,0.9938242435455322,0.049163348972797394,1.0089999437332153,1,2201549,0,0.049523595720529556,0.0,2112374,0,0,0,0
1.470256500004325,baseline,2222835422,2201558,380,13,8148,-104,-10,-11,2,27.96875,0.012735825031995773,-0.0019832721445709467,0.9942973852157593,-0.004625121131539345,-0.06031431257724762,-0.03213069215416908,-0.1817639023065567,0.10162729024887085,18.20074462890625,-0.1142847016453743,0.7512606382369995,-0.11196698993444443,0.7499527335166931,0.0046614184975624084,0.0013079047203063965,0.9944759607315063,0.004841429181396961,1.0089999437332153,1,2201559,0,0.004937490914016962,0.0,2112384,0,0,0,0
1.4802315999986604,baseline,2222844498,2201568,404,4,8151,-88,-16,-8,3,28.15625,0.012953748926520348,-0.0014605046017095447,0.9945257902145386,-0.002784494310617447,0.02776968479156494,-0.02391120418906212,-0.18187105655670166,0.10138213634490967,18.200502395629883,-0.08414129167795181,0.7462374567985535,-0.11207564920186996,0.7497653961181641,0.027934357523918152,-0.010481178760528564,0.9947229623794556,0.02463872730731964,1.0089999437332153,1,2201569,0,0.02450764924287796,0.0,2112394,0,0,0,0
1.4902832999941893,baseline,2222854582,2201578,400,6,8145,-121,-13,-10,0,28.125,0.013278220780193806,-0.0008946032612584531,0.9943378567695618,0.027930116280913353,0.017434103414416313,-0.05173986405134201,-0.1816304475069046,0.1017528772354126,18.200178146362305,-0.05154885724186897,0.7650724649429321,-0.1118350476026535,0.750136137008667,0.06028619036078453,0.0028520822525024414,0.994489848613739,0.04960174486041069,1.0089999437332153,1,2201579,0,0.049634307622909546,0.0,2112404,0,0,0,0
1.500317099998938,baseline,2222864666,2201588,400,22,8139,-104,-14,-9,3,28.125,0.012420207262039185,-0.001958523178473115,0.9942618012428284,-0.004783750511705875,-0.018023399636149406,-0.024784930050373077,-0.18158657848834991,0.10158175230026245,18.199867248535156,-0.11286259442567825,0.7156938314437866,-0.11179117858409882,0.7499650120735168,-0.0010714158415794373,-0.034271180629730225,0.994341254234314,0.0248255617916584,1.0080000162124634,1,2201589,0,0.024514829739928246,0.0,2112414,0,0,0,0
1.510384499997599,baseline,2222874750,2201597,406,23,8142,-108,-9,-8,4,28.171875,0.012215668335556984,-0.0022048172540962696,0.9943233728408813,-0.0057641007006168365,-0.0996151864528656,-0.0022452562116086483,-0.18156376481056213,0.1010696291923523,18.199682235717773,-0.12704770267009735,0.7038648724555969,-0.11176836490631104,0.7494528889656067,-0.015279337763786316,-0.045588016510009766,0.9944008588790894,0.02194235287606716,1.0080000162124634,1,2201599,0,0.021729441359639168,0.0,2112424,0,0,0,0
1.5203208000020823,baseline,2222884834,2201607,408,11,8143,-96,-13,-10,3,28.125,0.011440138332545757,-0.0020562391728162766,0.9941105246543884,-0.018754389137029648,-0.003313448280096054,-0.033408209681510925,-0.1814301311969757,0.1005399227142334,18.199575424194336,-0.1185116246342659,0.6593244075775146,-0.11163473129272461,0.7489231824874878,-0.00687689334154129,-0.08959877490997314,0.9941784739494324,0.08986229449510574,1.0080000162124634,1,2201608,0,0.0947796031832695,0.0,2112434,0,0,0,0
1.5305332999996608,baseline,2222894918,2201617,400,7,8143,-101,-13,-9,0,28.1875,0.013445249758660793,-0.0014016079949215055,0.9943541884422302,0.0322219654917717,-0.0034349216148257256,0.011168766766786575,-0.1813916563987732,0.10035073757171631,18.19940948486328,-0.08076214045286179,0.7746820449829102,-0.1115962564945221,0.7487339973449707,0.03083411604166031,0.025948047637939453,0.9944460988044739,0.0402994267642498,1.0080000162124634,1,2201619,0,0.0347740612924099,0.0,2112444,0,0,0,0
1.5402130000002217,baseline,2222905000,2201627,400,19,8133,-118,-10,-10,3,28.125,0.014018888585269451,-0.0019235846120864153,0.9941871762275696,-0.02074599638581276,-0.019660215824842453,-0.05071163922548294,-0.18130850791931152,0.10041040182113647,18.199111938476562,-0.12004975229501724,0.7912815809249878,-0.11150787025690079,0.7487946152687073,-0.008541882038116455,0.04248696565628052,0.994315505027771,0.04333712160587311,1.0059999227523804,1,2201628,0,0.04372214898467064,0.0,2112453,0,0,0,0
1.550284199998714,baseline,2222915081,2201637,412,17,8135,-121,-14,-11,2,28.21875,0.012514694593846798,-0.0019225541036576033,0.9940667748451233,-0.01049133576452732,-0.010903706774115562,-0.030420362949371338,-0.18127991259098053,0.10052388906478882,18.198814392089844,-0.10775889456272125,0.7397724986076355,-0.11147981882095337,0.7488877177238464,0.0037209242582321167,-0.009115219116210938,0.9940081834793091,0.0098454300314188,1.0089999437332153,1,2201638,0,0.009535263292491436,0.0,2112463,0,0,0,0
1.5605061999958707,baseline,2222925165,2201647,388,14,8147,-90,-16,-9,3,28.03125,0.011661317199468613,-0.0020764258224517107,0.9938137531280518,-0.020024843513965607,0.002842576941475272,0.0037576151080429554,-0.18105486035346985,0.09982413053512573,18.198862075805664,-0.1163291409611702,0.6905221343040466,-0.11125945299863815,0.7482073903083801,-0.0050696879625320435,-0.057685256004333496,0.994075357913971,0.057907603681087494,1.0080000162124634,1,2201648,0,0.057606980204582214,0.0,2112473,0,0,0,0
1.5703016000043135,baseline,2222935249,2201657,410,13,8148,-92,-17,-9,4,28.203125,0.013409470207989216,-0.0018011268693953753,0.9941368699073792,-0.02127688191831112,0.007207863032817841,-0.05643452703952789,-0.18106409907341003,0.09973651170730591,18.198434829711914,-0.09848844259977341,0.7382854223251343,-0.11124184727668762,0.7481326460838318,0.012753404676914215,-0.00984722375869751,0.9943376779556274,0.016112638637423515,1.0080000162124634,1,2201658,0,0.015916205942630768,0.0,2112483,0,0,0,0
1.5803332000068622,baseline,2222945332,2201667,392,14,8149,-115,-11,-8,2,28.0625,0.01408959086984396,-0.002614443888887763,0.9948815703392029,-0.010612238198518753,-0.05089922994375229,-0.012522374279797077,-0.1811080276966095,0.09976565837860107,18.19805335998535,-0.1434173732995987,0.7875220775604248,-0.11131493747234344,0.7480963468551636,-0.03210243582725525,0.03942573070526123,0.9949386119842529,0.05084244906902313,1.0089999437332153,1,2201668,0,0.05111648514866829,0.0,2112493,0,0,0,0
1.590109400000074,baseline,2222955416,2201677,412,22,8137,-115,-17,-9,4,28.21875,0.013679377734661102,-0.0023352489806711674,0.99390709400177,-0.022636251524090767,0.0525021068751812,0.0063177915289998055,-0.1811566799879074,0.09940159320831299,18.198368072509766,-0.13461987674236298,0.7885233759880066,-0.11136128008365631,0.7478811740875244,-0.015337206423282623,0.05410599708557129,0.9938309192657471,0.05623778700828552,1.0080000162124634,1,2201678,0,0.05671302601695061,0.0,2112503,0,0,0,0
1.600489699994796,baseline,2222965500,2201687,410,11,8142,-112,-14,-11,3,28.203125,0.014325941912829876,-0.0017392749432474375,0.993748664855957,-0.009041203185915947,-0.03159056976437569,-0.06823679804801941,-0.18112033605575562,0.0996847152709961,18.19798469543457,-0.10334113985300064,0.8321328163146973,-0.11130890995264053,0.7480923533439636,0.007967770099639893,0.08404046297073364,0.9939560294151306,0.08441732823848724,1.0080000162124634,1,2201688,0,0.08485981076955795,0.0,2112513,0,0,0,0
1.6104704000026686,baseline,2222975583,2201697,408,12,8134,-108,-14,-8,1,28.1875,0.013912771828472614,-0.0016286851605400443,0.9942582249641418,0.022882137447595596,-0.019406210631132126,-0.018242865800857544,-0.1811889410018921,0.0998305082321167,18.197528839111328,-0.0938555970788002,0.8016930818557739,-0.11140231043100357,0.7482354640960693,0.020142115652561188,0.022403955459594727,0.994156539440155,0.03012709878385067,1.0080000162124634,1,2201698,0,0.0304277203977108,0.0,2112523,0,0,0,0
1.6202736999985063,baseline,2222984659,2201706,386,18,8150,-141,-14,-10,3,28.125,0.014276698231697083,-0.001978036016225815,0.9939950704574585,0.003788529895246029,0.01026418711990118,-0.013526183553040028,-0.18120750784873962,0.10011076927185059,18.197538375854492,-0.11401764303445816,0.8228780627250671,-0.11141211539506912,0.748494029045105,-0.002605527639389038,0.07438403367996216,0.9940995573997498,0.07442965358495712,1.0080000162124634,1,2201708,0,0.09744656085968018,0.0,2112533,0,0,0,0
1.6303143999975873,baseline,2222994742,2201716,414,10,8132,-123,-13,-11,1,28.078125,0.014303185045719147,-0.001472368952818215,0.9937151670455933,0.012123186141252518,-0.03071582317352295,-0.05635729432106018,-0.18119612336158752,0.10024756193161011,18.19718360900879,-0.08489400893449783,0.8246374130249023,-0.11140073090791702,0.7486308217048645,0.02650672197341919,0.07600659132003784,0.9938192367553711,0.08049601316452026,1.0089999437332153,1,2201718,0,0.07519673556089401,0.0,2112543,0,0,0,0
1.6404697999969358,baseline,2223004826,2201727,398,21,8143,-108,-12,-6,2,28.109375,0.012957495637238026,-0.0020795136224478483,0.9938887357711792,-0.019393190741539,-0.05550847947597504,0.032110795378685,-0.1809878647327423,0.10011154413223267,18.196962356567383,-0.11987979710102081,0.7469308376312256,-0.11119247227907181,0.7484948039054871,-0.008687324821949005,-0.0015639662742614746,0.9939754009246826,0.00882698129862547,1.0080000162124634,1,2201728,0,0.018886469304561615,0.0,2112553,0,0,0,0
1.650336899998365,baseline,2223014910,2201736,414,22,8139,-113,-14,-8,2,28.234375,0.01327367965131998,-0.0025180892553180456,0.9935562014579773,-0.010378323495388031,0.016962381079792976,0.015356121584773064,-0.18100903928279877,0.09980529546737671,18.197376251220703,-0.14521129429340363,0.7768653035163879,-0.11121363937854767,0.7481885552406311,-0.03399765491485596,0.028676748275756836,0.9936507344245911,0.04447691887617111,1.0089999437332153,1,2201737,0,0.044764816761016846,0.0,2112563,0,0,0,0
1.6603353999962565,baseline,2223024994,2201746,388,11,8138,-118,-13,-13,3,28.03125,0.014609510079026222,-0.0020823010709136724,0.993623673915863,0.0006922278553247452,-0.027998186647892,-0.10684532672166824,-0.1810767948627472,0.10019993782043457,18.196775436401367,-0.12113279104232788,0.8383252024650574,-0.1112813949584961,0.748583197593689,-0.009851396083831787,0.08974200487136841,0.9936593770980835,0.09028110653162003,1.0080000162124634,1,2201747,0,0.09071164578199387,0.0,2112572,0,0,0,0
1.6704551000002539,baseline,2223035078,2201756,402,13,8139,-103,-12,-7,2,28.140625,0.014110496267676353,-0.0019745060708373785,0.9938368201255798,-0.015566961839795113,-0.014222505502402782,0.03740309923887253,-0.18105870485305786,0.10041254758834839,18.196504592895508,-0.10249236226081848,0.7983930110931396,-0.11126331239938736,0.7487958073616028,0.008770950138568878,0.049597203731536865,0.9937700629234314,0.05036677420139313,1.0080000162124634,1,2201757,0,0.050768207758665085,0.0,2112582,0,0,0,0
1.6802475000004051,baseline,2223045162,2201766,408,25,8146,-109,-13,-9,2,28.1875,0.013105635531246662,-0.00214735371991992,0.9935733675956726,0.00508123729377985,-0.015347275882959366,-0.016044244170188904,-0.1810864955186844,0.10024398565292358,18.19668197631836,-0.12536218762397766,0.7561765313148499,-0.11131539940834045,0.7486546039581299,-0.014046788215637207,0.007521927356719971,0.993984580039978,0.01593397743999958,1.0080000162124634,1,2201767,0,0.016152942553162575,0.0,2112592,0,0,0,0
1.6906484000064665,baseline,2223055246,2201776,396,12,8147,-100,-16,-9,3,28.125,0.013145471923053265,-0.0016679600812494755,0.9939174652099609,-0.013123687356710434,0.026116207242012024,-0.027413085103034973,-0.18119961023330688,0.10057693719863892,18.196508407592773,-0.09615182876586914,0.7577440738677979,-0.11140421777963638,0.7489601969718933,0.015252389013767242,0.008783876895904541,0.9940057992935181,0.017600905150175095,1.0080000162124634,1,2201778,0,0.0050951214507222176,0.0,2112603,0,0,0,0
1.7005747000075644,baseline,2223065329,2201786,402,22,8144,-110,-12,-7,3,28.140625,0.01325180009007454,-0.0017287724185734987,0.9940890669822693,-0.03039366379380226,-0.028005225583910942,0.028106024488806725,-0.18101227283477783,0.10047948360443115,18.196475982666016,-0.11618495732545853,0.7730761170387268,-0.11121687293052673,0.7488627433776855,-0.004968084394931793,0.02421337366104126,0.9942865967750549,0.024717792868614197,1.0089999437332153,1,2201787,0,0.025055764243006706,0.0,2112612,0,0,0,0
1.7102643999969587,baseline,2223075413,2201796,408,20,8146,-128,-13,-8,3,28.1875,0.013829188421368599,-0.0023828742559999228,0.9935342669487,0.0053354427218437195,0.009280607104301453,-0.0016186917200684547,-0.18120476603507996,0.10063916444778442,18.196571350097656,-0.13741686940193176,0.7974568009376526,-0.11142129451036453,0.7490648031234741,-0.0298391655087471,0.06569218635559082,0.9939275979995728,0.07215149700641632,1.0089999437332153,1,2201797,0,0.07257261127233505,0.0,2112622,0,0,0,0
1.7201576000079513,baseline,2223084489,2201805,390,16,8139,-116,-16,-12,1,28.046875,0.013796661980450153,-0.002106480998918414,0.9938403964042664,0.02472538873553276,0.07617944478988647,-0.07980568706989288,-0.18144762516021729,0.10145527124404907,18.19612693786621,-0.12144031375646591,0.7953369617462158,-0.11165223270654678,0.7498385310173035,-0.009788081049919128,0.045498430728912354,0.9939383864402771,0.024248402565717697,1.0089999437332153,1,2201807,0,0.024639906361699104,0.0,2112632,0,0,0,0
1.7301573000004282,baseline,2223094573,2201815,412,31,8149,-108,-14,-9,3,28.109375,0.013896948657929897,-0.0025320935528725386,0.994409441947937,-0.013492550700902939,0.013752545230090618,0.0017136875540018082,-0.18147991597652435,0.10167145729064941,18.19591522216797,-0.14589358866214752,0.8006582260131836,-0.11168451607227325,0.7500547170639038,-0.03420907258987427,0.050603508949279785,0.994509756565094,0.06108171492815018,1.0089999437332153,1,2201817,0,0.07361286878585815,0.0,2112642,0,0,0,0
1.7402548999962164,baseline,2223104657,2201825,384,11,8142,-118,-13,-10,2,28.0625,0.014805843122303486,-0.001762783038429916,0.994647741317749,0.011177081614732742,-0.03738684579730034,-0.007681090384721756,-0.1814340054988861,0.10201829671859741,18.195886611938477,-0.10154341161251068,0.8528128266334534,-0.1116386130452156,0.7504015564918518,0.010095201432704926,0.10241127014160156,0.9947595000267029,0.10290763527154922,1.0080000162124634,1,2201827,0,0.09607210010290146,0.0,2112652,0,0,0,0
1.7502070000045933,baseline,2223114739,2201835,408,18,8135,-116,-13,-11,4,28.109375,0.013780813664197922,-0.0026394003070890903,0.9938725829124451,-0.03317296504974365,0.0024822065606713295,-0.05880648270249367,-0.18155750632286072,0.10209828615188599,18.195608139038086,-0.1521584689617157,0.794396698474884,-0.11176209896802902,0.7504815459251404,-0.040396369993686676,0.04391515254974365,0.9939716458320618,0.05966914817690849,1.0080000162124634,1,2201836,0,0.059984706342220306,0.0,2112662,0,0,0,0
1.760236400004942,baseline,2223124823,2201845,394,14,8140,-111,-13,-9,0,28.25,0.012943563051521778,-0.0022654058411717415,0.9942188262939453,0.03903745859861374,-0.07051760703325272,0.0070884618908166885,-0.18182918429374695,0.10175538063049316,18.195457458496094,-0.1305527240037918,0.7458797693252563,-0.11203378438949585,0.7501386404037476,-0.01851893961429596,-0.004258871078491211,0.9943056702613831,0.019002344459295273,1.0080000162124634,1,2201846,0,0.01899736188352108,0.0,2112672,0,0,0,0
1.7702605999947991,baseline,2223134905,2201855,392,24,8146,-91,-14,-9,3,28.0625,0.012794040143489838,-0.0020010280422866344,0.9939668774604797,-0.017800573259592056,0.003711884142830968,-0.024387279525399208,-0.18198180198669434,0.10144340991973877,18.195344924926758,-0.13050824403762817,0.7576101422309875,-0.11218639463186264,0.7498266696929932,-0.018321849405765533,0.007783472537994385,0.9942388534545898,0.019906597211956978,1.0080000162124634,1,2201856,0,0.020058944821357727,0.0,2112681,0,0,0,0
1.7802901999966707,baseline,2223144989,2201865,410,17,8143,-103,-13,-13,0,28.203125,0.013453645631670952,-0.001900030649267137,0.9938299059867859,0.037502676248550415,0.01274612545967102,-0.09446944296360016,-0.18191048502922058,0.10152816772460938,18.1949405670166,-0.11223636567592621,0.7562252879142761,-0.1121450662612915,0.749915599822998,-9.129941463470459e-05,0.006309688091278076,0.994103193283081,0.0063103483989834785,1.0080000162124634,1,2201866,0,0.006683918181806803,0.0,2112691,0,0,0,0
1.7903038000076776,baseline,2223155073,2201875,400,21,8140,-104,-10,-8,2,28.125,0.013690175488591194,-0.001863599754869938,0.9939472675323486,0.024798162281513214,-0.05711478367447853,-0.017910003662109375,-0.18206825852394104,0.10138857364654541,18.194435119628906,-0.10600553452968597,0.775503396987915,-0.11227963119745255,0.7497184872627258,0.006274096667766571,0.02578490972518921,0.9941093921661377,0.026537254452705383,1.0080000162124634,1,2201876,0,0.026855479925870895,0.0,2112701,0,0,0,0
1.8003565999970306,baseline,2223165156,2201885,412,19,8140,-120,-14,-10,3,28.21875,0.014207741245627403,-0.0013016617158427835,0.9940010905265808,-0.026260174810886383,0.00599202373996377,-0.018545879051089287,-0.1817377805709839,0.101310133934021,18.194581985473633,-0.09101817011833191,0.8094420433044434,-0.11190775036811829,0.7496933937072754,0.020889580249786377,0.05974864959716797,0.9942204356193542,0.0632951483130455,1.0089999437332153,1,2201886,0,0.06373618543148041,0.0,2112711,0,0,0,0
1.8103180000034627,baseline,2223175240,2201895,388,7,8135,-111,-12,-11,2,28.03125,0.01370022539049387,-0.0012615830637514591,0.9934515357017517,0.008366035297513008,-0.05654092878103256,-0.05343271791934967,-0.18171849846839905,0.10130363702774048,18.194353103637695,-0.07127535343170166,0.8010609149932861,-0.11191263049840927,0.7496674060821533,0.04063727706670761,0.05139350891113281,0.9934650659561157,0.06551855057477951,1.0080000162124634,1,2201896,0,0.0658365786075592,0.0,2112721,0,0,0,0
1.8203442999947583,baseline,2223185324,2201905,406,8,8158,-104,-14,-9,3,28.171875,0.013419926166534424,-0.0013771200319752097,0.9944574236869812,0.004272753372788429,-0.005400027614086866,-0.012366083450615406,-0.1815330982208252,0.10119861364364624,18.19395637512207,-0.08237631618976593,0.7888367772102356,-0.11169862002134323,0.7496009469032288,0.0293223038315773,0.039235830307006836,0.9945412278175354,0.04898211732506752,1.0069999694824219,1,2201906,0,0.04934319481253624,0.0,2112731,0,0,0,0
1.8303470999962883,baseline,2223195411,2201915,384,17,8138,-89,-14,-9,3,28.0,0.012440637685358524,-0.002015816979110241,0.9942463636398315,0.0037846602499485016,-0.02353310026228428,-0.00977271143347025,-0.1815691888332367,0.10122525691986084,18.193811416625977,-0.11784476041793823,0.703713595867157,-0.11176279187202454,0.749603271484375,-0.006081968545913696,-0.04588967561721802,0.994151771068573,0.04629095643758774,1.003999948501587,1,2201916,0,0.04596332833170891,0.0,2112741,0,0,0,0
1.840379400004167,baseline,2223205491,2201925,394,9,8138,-118,-15,-9,3,28.078125,0.012933744117617607,-0.0015603938372805715,0.9939796328544617,-0.01219881046563387,0.031239088624715805,-0.01959710568189621,-0.18152371048927307,0.10123270750045776,18.19354248046875,-0.08237706124782562,0.7656410932540894,-0.11169929802417755,0.7496685981750488,0.02932223677635193,0.015972495079040527,0.994056224822998,0.03339033201336861,1.0080000162124634,1,2201926,0,0.0336366705596447,0.0,2112751,0,0,0,0
1.8504075999953784,baseline,2223215575,2201935,396,21,8142,-118,-14,-8,1,28.09375,0.013787513598799706,-0.002237231470644474,0.9938998818397522,0.03974281623959541,-0.024965621531009674,-0.0014325701631605625,-0.18156959116458893,0.10147124528884888,18.193307876586914,-0.1289704442024231,0.7947618365287781,-0.11180835962295532,0.7498734593391418,-0.007849536836147308,0.0649062991142273,0.9941568970680237,0.06537922471761703,1.0080000162124634,1,2201936,0,0.06580649316310883,0.0,2112761,0,0,0,0
1.8604149000020698,baseline,2223224648,2201945,408,20,8150,-128,-15,-8,2,28.1875,0.015346669591963291,-0.002001557732000947,0.9937379956245422,-0.016038060188293457,0.024062475189566612,-0.002278999425470829,-0.18160593509674072,0.10194128751754761,18.193265914916992,-0.11540330201387405,0.8847681283950806,-0.11181054264307022,0.750324547290802,-0.003592759370803833,0.13444358110427856,0.9939610958099365,0.1337476372718811,1.0080000162124634,1,2201946,0,0.13428397476673126,0.0,2112771,0,0,0,0
1.8700696000014432,baseline,2223234730,2201954,390,15,8132,-100,-13,-10,4,28.046875,0.014207661151885986,-0.002539499197155237,0.9943075776100159,-0.01960636116564274,-0.019999278709292412,-0.0415915884077549,-0.18153531849384308,0.10213100910186768,18.192869186401367,-0.1354493796825409,0.8006629347801208,-0.11173991858959198,0.7505142688751221,-0.023709461092948914,0.05014866590499878,0.9940324425697327,0.05547095835208893,1.0080000162124634,1,2201955,0,0.055838048458099365,0.0,2112780,0,0,0,0
1.8800874000007752,baseline,2223244813,2201964,396,14,8160,-114,-15,-8,3,28.09375,0.013696173205971718,-0.0020049680024385452,0.994718074798584,0.005047833546996117,0.013599589467048645,0.011562755331397057,-0.18167170882225037,0.1022297739982605,18.192659378051758,-0.10832305252552032,0.78529292345047,-0.11187630146741867,0.7506130337715149,0.003553248941898346,0.03467988967895508,0.9947991967201233,0.03486144542694092,1.0089999437332153,1,2201965,0,0.035295478999614716,0.0,2112790,0,0,0,0
1.8901958000060404,baseline,2223254897,2201974,394,14,8142,-129,-12,-11,5,28.078125,0.01363880280405283,-0.0014584774617105722,0.9938161373138428,-0.03232266753911972,-0.01732177659869194,-0.0714772418141365,-0.18154287338256836,0.10238313674926758,18.192481994628906,-0.08525613695383072,0.8010419011116028,-0.11174746602773666,0.750766396522522,0.026491329073905945,0.05027550458908081,0.9939464926719666,0.056827958673238754,1.0089999437332153,1,2201975,0,0.057207368314266205,0.0,2112800,0,0,0,0
1.9002367000066442,baseline,2223264980,2201984,406,21,8139,-111,-14,-9,3,28.171875,0.013405490666627884,-0.0018704005051404238,0.994583785533905,-0.013164730742573738,-0.01268340740352869,-0.02196609415113926,-0.18139591813087463,0.10249042510986328,18.192218780517578,-0.1196947991847992,0.7715351581573486,-0.11159976571798325,0.7508989572525024,-0.008095033466815948,0.02063620090484619,0.9943735003471375,0.02216714434325695,1.0089999437332153,1,2201985,0,0.02254505082964897,0.0,2112810,0,0,0,0
1.910700699998415,baseline,2223275061,2201994,394,17,8146,-93,-14,-8,2,28.078125,0.013517701998353004,-0.0019608410075306892,0.9940609335899353,-0.002703484147787094,-0.017355430871248245,-0.005876612383872271,-0.1815793663263321,0.10253936052322388,18.19209098815918,-0.11301899701356888,0.7790850400924683,-0.111783966422081,0.7509226202964783,-0.0012350305914878845,0.02816241979598999,0.9941547513008118,0.028189485892653465,1.0080000162124634,1,2201996,0,0.04498424381017685,0.0,2112821,0,0,0,0
1.9206894999952056,baseline,2223285145,2202004,400,14,8145,-119,-17,-9,1,28.21875,0.013756024651229382,-0.002304807770997286,0.9942081570625305,0.007451336830854416,0.01687188446521759,-0.01606791652739048,-0.1816144585609436,0.10298502445220947,18.19194221496582,-0.1328248232603073,0.7927009463310242,-0.1118190586566925,0.7513682842254639,-0.021005764603614807,0.0413326621055603,0.9943060278892517,0.04636411368846893,1.0080000162124634,1,2202006,0,0.03167642652988434,0.0,2112831,0,0,0,0
1.930197199995746,baseline,2223295229,2202014,402,23,8149,-115,-13,-6,2,28.140625,0.013512630946934223,-0.001448208699002862,0.9945289492607117,-0.006686106324195862,-0.04478149488568306,0.015766244381666183,-0.18144840002059937,0.10261279344558716,18.19182777404785,-0.1181614100933075,0.8055323362350464,-0.11163447797298431,0.7510173320770264,-0.006526932120323181,0.05451500415802002,0.9946258664131165,0.05490433797240257,1.0080000162124634,1,2202015,0,0.0553210973739624,0.0,2112840,0,0,0,0
1.9401620999997249,baseline,2223305313,2202024,410,17,8138,-115,-13,-9,3,28.203125,0.013962444849312305,-0.0018264692043885589,0.9937195777893066,-0.022000398486852646,-0.025534482672810555,-0.015629401430487633,-0.18119794130325317,0.10271555185317993,18.19187355041504,-0.10531025379896164,0.804990828037262,-0.11139307171106339,0.7511085271835327,-0.002877183258533478,0.04779249429702759,0.9939236640930176,0.04787902161478996,1.0080000162124634,1,2202025,0,0.04828418046236038,0.0,2112850,0,0,0,0
1.950297600007616,baseline,2223315397,2202034,396,20,8138,-119,-15,-12,2,28.09375,0.014779090881347656,-0.0027390914037823677,0.9936187863349915,-0.0033936882391572,0.005674777552485466,-0.06413019448518753,-0.18133795261383057,0.10331863164901733,18.191579818725586,-0.15794587135314941,0.85215163230896,-0.11156227439641953,0.7517833709716797,-0.03471788018941879,0.10803157091140747,0.9938167333602905,0.11347313225269318,1.0080000162124634,1,2202035,0,0.11397826671600342,0.0,2112860,0,0,0,0
1.9601056999963475,baseline,2223324472,2202044,400,17,8150,-118,-13,-7,2,28.125,0.013714415021240711,-0.001964951166883111,0.9939688444137573,0.01838572695851326,0.012381361797451973,0.006514284759759903,-0.18154789507389069,0.10418945550918579,18.191240310668945,-0.11326638609170914,0.7904943227767944,-0.11175249516963959,0.7525727152824402,-0.0015138909220695496,0.03792160749435425,0.9940654039382935,0.05317949876189232,1.0080000162124634,1,2202045,0,0.053580742329359055,0.0,2112870,0,0,0,0
1.9702442999987397,baseline,2223334555,2202054,388,26,8150,-122,-10,-7,2,28.03125,0.013901571743190289,-0.0025128822308033705,0.9941120743751526,0.003907944541424513,-0.09157837927341461,0.054817818105220795,-0.18167877197265625,0.10377293825149536,18.191797256469727,-0.14482998847961426,0.8011640906333923,-0.11188337206840515,0.7521561980247498,-0.032946616411209106,0.04900789260864258,0.9942124485969543,0.07543803006410599,1.0080000162124634,1,2202055,0,0.07583138346672058,0.0,2112880,0,0,0,0
1.98057400000107,baseline,2223345645,2202064,408,5,8163,-98,-15,-13,4,28.1875,0.013196184299886227,-0.0018695364706218243,0.9949913024902344,-0.03531228378415108,0.021331090480089188,-0.13376359641551971,-0.18187475204467773,0.10407054424285889,18.19087791442871,-0.0916837751865387,0.7495968341827393,-0.11204038560390472,0.752479612827301,0.020356610417366028,-0.0028827786445617676,0.9952138662338257,0.02055971883237362,1.0080000162124634,1,2202065,0,0.020558608695864677,0.0,2112890,0,0,0,0
1.9902813000080641,baseline,2223354720,2202073,388,24,8141,-83,-12,-5,3,28.03125,0.01222709845751524,-0.0019349588546901941,0.9942343235015869,0.015823746100068092,-0.05063622444868088,0.06586137413978577,-0.1816166788339615,0.10415327548980713,18.190553665161133,-0.11150775849819183,0.704586923122406,-0.11182127892971039,0.7525365352630615,0.0003135204315185547,-0.04794961214065552,0.9943113923072815,0.047950636595487595,1.0089999437332153,1,2202075,0,0.041074976325035095,0.0,2112900,0,0,0,0
2.0000816999963718,baseline,2223364804,2202083,394,23,8141,-130,-14,-11,2,28.078125,0.01499147154390812,-0.002172320382669568,0.9948221445083618,-0.0007637604139745235,-0.04213093966245651,-0.015381790697574615,-0.18147799372673035,0.10378891229629517,18.191051483154297,-0.1287219077348709,0.8560022711753845,-0.11168447136878967,0.7521989345550537,-0.017037436366081238,0.10380333662033081,0.9946532845497131,0.10519224405288696,1.0080000162124634,1,2202084,0,0.10564813017845154,0.0,2112909,0,0,0,0
2.010138800003915,baseline,2223374888,2202093,392,11,8156,-113,-14,-10,4,28.0625,0.01330123282968998,-0.0023553483188152313,0.9952114820480347,-0.02533690258860588,0.021609874442219734,-0.07827255874872208,-0.1814574897289276,0.1041838526725769,18.19015884399414,-0.12301064282655716,0.78024822473526,-0.11164488643407822,0.7525671124458313,-0.011365756392478943,0.02768111228942871,0.9953104853630066,0.029923642054200172,1.0080000162124634,1,2202094,0,0.030313385650515556,0.0,2112919,0,0,0,0
2.020155699996394,baseline,2223384972,2202103,404,25,8146,-114,-12,-5,2,28.15625,0.012771603651344776,-0.0016480355989187956,0.9943081140518188,-0.010784689337015152,-0.035145558416843414,0.07662783563137054,-0.18127843737602234,0.10421645641326904,18.190351486206055,-0.10333097726106644,0.7597391605377197,-0.1114741861820221,0.7525724768638611,0.008143208920955658,0.007166683673858643,0.9944093227386475,0.01084772776812315,1.0080000162124634,1,2202104,0,0.011087575927376747,0.0,2112929,0,0,0,0
2.0302270999964094,baseline,2223395052,2202113,394,23,8153,-104,-13,-9,3,28.078125,0.01481760572642088,-0.001938551664352417,0.9945621490478516,-0.012559696100652218,-0.07229603081941605,0.004803302697837353,-0.18107309937477112,0.10401654243469238,18.190942764282227,-0.12406633049249649,0.8262814283370972,-0.11125877499580383,0.7523916959762573,-0.012807555496692657,0.07388973236083984,0.9947753548622131,0.07499150186777115,1.0080000162124634,1,2202114,0,0.07538886368274689,0.0,2112939,0,0,0,0
2.0402538000053028,baseline,2223405136,2202123,400,19,8147,-108,-18,-10,1,28.125,0.01338519249111414,-0.0024700884241610765,0.99467933177948,0.025858823210000992,0.08018320053815842,-0.06906965374946594,-0.181108757853508,0.10440516471862793,18.190277099609375,-0.14760327339172363,0.7502071261405945,-0.11135343462228775,0.7528335452079773,-0.03624983876943588,-0.0026264190673828125,0.9947211742401123,0.03634485974907875,1.0080000162124634,1,2202124,0,0.03637778013944626,0.0,2112949,0,0,0,0
2.050542900004075,baseline,2223415220,2202133,394,15,8136,-97,-14,-6,2,28.078125,0.012110840529203415,-0.001837455085478723,0.9942765831947327,0.0026369853876531124,-0.07922904193401337,0.07241635769605637,-0.1812554895877838,0.10355836153030396,18.190473556518555,-0.10583842545747757,0.7110925912857056,-0.11146008968353271,0.7519416213035583,0.005621664226055145,-0.04084903001785278,0.9942364692687988,0.04123404249548912,1.0080000162124634,1,2202134,0,0.04096798971295357,0.0,2112959,0,0,0,0
2.0603334000043105,baseline,2223425303,2202143,402,4,8150,-115,-13,-11,4,28.140625,0.012925432994961739,-0.0017563453875482082,0.9938297271728516,-0.04430101066827774,-0.019770648330450058,-0.057058483362197876,-0.18101732432842255,0.10327106714248657,18.190771102905273,-0.09409189969301224,0.7550266981124878,-0.1111774742603302,0.7516558766365051,0.017085574567317963,0.003370821475982666,0.9942764639854431,0.017414916306734085,1.0080000162124634,1,2202144,0,0.01754298433661461,0.0,2112969,0,0,0,0
2.070341600003303,baseline,2223435387,2202153,412,21,8134,-72,-13,-9,1,28.21875,0.012287628836929798,-0.0017194056417793036,0.9943074584007263,0.004014336504042149,-0.022891759872436523,-0.05770822614431381,-0.1809801459312439,0.10313904285430908,18.189922332763672,-0.09898599237203598,0.699496865272522,-0.11119575053453445,0.7514628767967224,0.012209758162498474,-0.05196601152420044,0.9943565726280212,0.05338112637400627,1.0080000162124634,1,2202154,0,0.05311478674411774,0.0,2112979,0,0,0,0
2.080142999999225,baseline,2223444462,2202162,402,23,8144,-112,-10,-4,2,28.140625,0.013236897997558117,-0.0027291057631373405,0.9941872358322144,0.0021974178962409496,-0.09622235596179962,0.09603488445281982,-0.1811736673116684,0.10249859094619751,18.190183639526367,-0.1572800725698471,0.7628046870231628,-0.1113782674074173,0.7508818507194519,-0.04590180516242981,0.011922836303710938,0.9942790865898132,0.044015899300575256,1.0080000162124634,1,2202164,0,0.04416928067803383,0.0,2112989,0,0,0,0
2.09034189999511,baseline,2223455555,2202173,410,22,8148,-120,-16,-12,4,28.203125,0.014071336016058922,-0.0024644990917295218,0.9945915341377258,-0.026878803968429565,0.01734398677945137,-0.04268542677164078,-0.18138748407363892,0.10218507051467896,18.190540313720703,-0.14197297394275665,0.8105558156967163,-0.11159207671880722,0.7505683302879333,-0.034629181027412415,0.05406683683395386,0.9946794509887695,0.06420594453811646,1.0080000162124634,1,2202174,0,0.06459944695234299,0.0,2112999,0,0,0,0
2.100540900006308,baseline,2223465638,2202183,392,18,8146,-102,-13,-9,3,28.0625,0.013074703514575958,-0.001692786579951644,0.9945127964019775,-0.030617687851190567,0.006398499011993408,-0.0719207152724266,-0.18121814727783203,0.10256433486938477,18.18953514099121,-0.09752456843852997,0.7484732866287231,-0.11141251772642136,0.7509123086929321,0.008185029029846191,-0.0024390220642089844,0.9948112964630127,0.008540698327124119,1.0089999437332153,1,2202184,0,0.008467089384794235,0.0,2113009,0,0,0,0
2.1104690000065602,baseline,2223475722,2202193,398,25,8148,-124,-14,-5,4,28.109375,0.012965867295861244,-0.0017799513880163431,0.994686484336853,-0.028457213193178177,-0.031370267271995544,0.07958909869194031,-0.1811714917421341,0.10206252336502075,18.18977165222168,-0.10252838581800461,0.7468143701553345,-0.111376091837883,0.7504457831382751,0.008847706019878387,0.009567439556121826,0.9947278499603271,0.010330437682569027,1.0089999437332153,1,2202194,0,0.010660811327397823,0.0,2113019,0,0,0,0
2.1200467000016943,baseline,2223484797,2202202,406,19,8133,-136,-13,-10,2,28.171875,0.015301085077226162,-0.002150880638509989,0.9934117794036865,0.024247903376817703,-0.012035652995109558,-0.019571520388126373,-0.18121246993541718,0.10220503807067871,18.18999481201172,-0.12558957934379578,0.8786602020263672,-0.11145488917827606,0.7505882978439331,-0.014134690165519714,0.12807190418243408,0.9935691356658936,0.12884953618049622,1.0080000162124634,1,2202203,0,0.12932905554771423,0.0,2113028,0,0,0,0
2.1300906999967992,baseline,2223494881,2202212,408,19,8146,-104,-13,-9,1,28.1875,0.013002479448914528,-0.002114095026627183,0.9941534399986267,0.02702033519744873,-0.028084825724363327,-0.06259362399578094,-0.18160612881183624,0.10239279270172119,18.189138412475586,-0.12259658426046371,0.7542980909347534,-0.11181072890758514,0.7507760524749756,-0.01078585535287857,0.003522038459777832,0.9942785501480103,0.01134634017944336,1.0080000162124634,1,2202213,0,0.011492881923913956,0.0,2113038,0,0,0,0
2.140077400006703,baseline,2223504965,2202222,400,16,8136,-107,-14,-6,2,28.125,0.013705016113817692,-0.0021889882627874613,0.9938855171203613,0.006067553535103798,0.0202017854899168,0.029692765325307846,-0.18166689574718475,0.10238933563232422,18.189075469970703,-0.11622413992881775,0.766295850276947,-0.11187036335468292,0.7507867217063904,-0.004353776574134827,0.01550912857055664,0.9939588308334351,0.016108645126223564,1.0080000162124634,1,2202223,0,0.016484219580888748,0.0,2113048,0,0,0,0
2.150547600002028,baseline,2223515049,2202232,398,17,8138,-122,-17,-11,2,28.109375,0.014999276027083397,-0.002377381082624197,0.9936307668685913,0.014485660009086132,0.04299429804086685,-0.06351809203624725,-0.18182867765426636,0.10282760858535767,18.18901252746582,-0.13708677887916565,0.8648358583450317,-0.11203327775001526,0.7512108683586121,-0.02505350112915039,0.11362498998641968,0.993746817111969,0.11635427176952362,1.0080000162124634,1,2202233,0,0.09563623368740082,0.0,2113059,0,0,0,0
2.1605565000063507,baseline,2223525134,2202242,400,17,8146,-104,-15,-8,3,28.3125,0.013750015757977962,-0.0025702151469886303,0.9940958023071289,0.0014629601500928402,0.02411854825913906,-0.02863319404423237,-0.1821880340576172,0.10325390100479126,18.18848991394043,-0.14813677966594696,0.7924437522888184,-0.11239263415336609,0.7516371607780457,-0.03574414551258087,0.040806591510772705,0.9941942095756531,0.05424778163433075,1.0069999694824219,1,2202243,0,0.05875304341316223,0.0,2113069,0,0,0,0
2.170174800005043,baseline,2223535214,2202252,398,21,8146,-115,-11,-6,2,28.109375,0.01202055998146534,-0.002016782760620117,0.993862509727478,-0.00014335568994283676,0.021752849221229553,0.0688018873333931,-0.18210914731025696,0.10338789224624634,18.188764572143555,-0.1167818158864975,0.7213163375854492,-0.11230843514204025,0.7517116665840149,-0.004473380744457245,-0.030395328998565674,0.9941036105155945,0.03072274662554264,1.0089999437332153,1,2202253,0,0.030439017340540886,0.0,2113078,0,0,0,0
2.1802026000077603,baseline,2223545301,2202262,398,8,8135,-93,-15,-9,0,28.109375,0.013586437329649925,-0.0021447893232107162,0.9937451481819153,0.032866768538951874,0.042969804257154465,-0.0047971936874091625,-0.18221917748451233,0.10376542806625366,18.188861846923828,-0.1107385978102684,0.7471993565559387,-0.11244890838861465,0.7521470785140991,0.0017103105783462524,-0.0049477219581604,0.9938942193984985,0.005234989337623119,1.0059999227523804,1,2202263,0,0.004886957351118326,0.0,2113088,0,0,0,0
2.1902342999965185,baseline,2223555382,2202272,416,9,8142,-143,-9,-9,3,28.25,0.014509489759802818,-0.0021799812093377113,0.9937053918838501,-0.0077104996889829636,-0.0735865905880928,-0.021654194220900536,-0.18209123611450195,0.10379272699356079,18.188241958618164,-0.1001887321472168,0.8390130400657654,-0.1122681200504303,0.7521114945411682,0.012079387903213501,0.08690154552459717,0.9937082529067993,0.0877370536327362,1.0089999437332153,1,2202273,0,0.08809641748666763,0.0,2113098,0,0,0,0
2.2004470999963814,baseline,2223565466,2202282,396,11,8132,-104,-13,-8,3,28.09375,0.010212715715169907,-0.0018774468917399645,0.9938900470733643,-0.03769207000732422,0.013858767226338387,0.05193623900413513,-0.1817055493593216,0.1035383939743042,18.188262939453125,-0.09329579025506973,0.7073730230331421,-0.11187884956598282,0.7518702149391174,0.018583059310913086,-0.04449719190597534,0.993987500667572,0.04822168126702309,1.0080000162124634,1,2202283,0,0.047974634915590286,0.0,2113108,0,0,0,0
2.2102030999958515,baseline,2223574541,2202292,404,-12,8147,11,-12,-7,4,28.15625,0.008914005942642689,-0.0015238993801176548,0.9943420886993408,-0.013836674392223358,0.02637353539466858,0.07827750593423843,-0.18167898058891296,0.10377764701843262,18.188411712646484,-0.08780975639820099,0.5136266350746155,-0.11188357323408127,0.752160906791687,0.02407381683588028,-0.23853427171707153,0.9943832159042358,0.23974600434303284,1.0080000162124634,1,2202293,0,0.26516634225845337,0.0,2113118,0,0,0,0
2.2201635999954306,baseline,2223584625,2202301,388,14,8139,-73,-11,-8,2,28.125,0.01478811539709568,-0.0021655599121004343,0.9937409162521362,0.008932818658649921,-0.06895459443330765,-0.013921720907092094,-0.18163368105888367,0.1034896969795227,18.188154220581055,-0.12485873699188232,0.8525683283805847,-0.11183828860521317,0.7518729567527771,-0.013020448386669159,0.10069537162780762,0.9938533306121826,0.1015336886048317,1.0089999437332153,1,2202303,0,0.0557745136320591,0.0,2113128,0,0,0,0
2.230308400001377,baseline,2223594706,2202311,390,16,8139,-115,-14,-8,1,28.09375,0.017160935327410698,-0.0023275355342775583,0.9939092397689819,-0.01792169362306595,0.08494414389133453,-0.012230979278683662,-0.18152807652950287,0.10429316759109497,18.18715476989746,-0.13417495787143707,0.9891735911369324,-0.11173267662525177,0.7526764273643494,-0.022442281246185303,0.236497163772583,0.9940600991249084,0.23755960166454315,1.0080000162124634,1,2202313,0,0.1392347812652588,0.0,2113138,0,0,0,0
2.2402813999942737,baseline,2223604790,2202321,406,23,8128,-167,-16,-3,2,28.03125,0.014518581330776215,-0.0022355576511472464,0.9936553239822388,0.01734752021729946,0.02327076718211174,0.14318020641803741,-0.1815275251865387,0.10391396284103394,18.18796157836914,-0.12890566885471344,0.8371033072471619,-0.1117321327328682,0.7522972226142883,-0.017173536121845245,0.08480608463287354,0.9937638640403748,0.08652746677398682,1.0089999437332153,1,2202322,0,0.08701245486736298,0.0,2113148,0,0,0,0
2.2502925000007963,baseline,2223614874,2202331,400,14,8140,-95,-13,-15,4,28.125,0.012982029467821121,-0.002000198233872652,0.9942924380302429,-0.04026184603571892,-0.031197696924209595,-0.14075204730033875,-0.18156033754348755,0.10349136590957642,18.188175201416016,-0.11526061594486237,0.736497700214386,-0.11176494508981705,0.7518746256828308,-0.0034956708550453186,-0.015376925468444824,0.9943765997886658,0.01576926000416279,1.0080000162124634,1,2202332,0,0.01545289158821106,0.0,2113157,0,0,0,0
2.2605098000058206,baseline,2223624958,2202341,414,13,8156,-50,-15,-8,1,28.234375,0.010441224090754986,-0.0022496574092656374,0.9950392842292786,0.011184372007846832,0.026872113347053528,-0.04492713883519173,-0.1814124882221222,0.10373401641845703,18.186153411865234,-0.12953825294971466,0.6011969447135925,-0.1116170808672905,0.7521172761917114,-0.017921172082424164,-0.1509203314781189,0.9950966238975525,0.15198063850402832,1.0080000162124634,1,2202342,0,0.21313542127609253,0.0,2113168,0,0,0,0
2.27052150000236,baseline,2223635041,2202351,402,16,8133,-161,-10,0,3,28.140625,0.014999267645180225,-0.0020935931243002415,0.9940598607063293,-0.0031419615261256695,-0.10056422650814056,0.2294544279575348,-0.1815677285194397,0.10293513536453247,18.18780517578125,-0.11715482175350189,0.8746441006660461,-0.111772321164608,0.7513183951377869,-0.00538250058889389,0.12332570552825928,0.9941777586936951,0.1234431117773056,1.0089999437332153,1,2202352,0,0.12384942919015884,0.0,2113178,0,0,0,0
2.280145299999276,baseline,2223645124,2202361,416,14,8138,-143,-17,-20,4,28.25,0.014871776103973389,-0.001419721287675202,0.9939148426055908,0.00048041529953479767,0.08786188811063766,-0.2494722157716751,-0.18167757987976074,0.10283410549163818,18.187576293945312,-0.0923101156949997,0.8910126090049744,-0.1118595078587532,0.7513805031776428,0.01954939216375351,0.13963210582733154,0.9939172267913818,0.14099398255348206,1.0089999437332153,1,2202362,0,0.141611710190773,0.0,2113187,0,0,0,0
2.2903115000081016,baseline,2223655208,2202371,396,20,8157,-50,-13,-7,3,28.09375,0.00854080356657505,-0.0022647706791758537,0.9947749376296997,-0.028324127197265625,0.010308675467967987,-0.041761964559555054,-0.18153107166290283,0.10346329212188721,18.18544578552246,-0.12981942296028137,0.47965532541275024,-0.11173929274082184,0.7516880631446838,-0.018080130219459534,-0.2720327377319336,0.994866669178009,0.2726329267024994,1.0089999437332153,1,2202372,0,0.2726019322872162,0.0,2113197,0,0,0,0
2.300540700001875,baseline,2223665292,2202381,406,7,8146,-118,-8,-3,3,28.171875,0.013897224329411983,-0.001740232459269464,0.994654655456543,-0.00026039592921733856,-0.17195755243301392,0.24310699105262756,-0.18160507082939148,0.1019030213356018,18.187881469726562,-0.09216459095478058,0.809683620929718,-0.11180967837572098,0.7502862811088562,0.0196450874209404,0.059397339820861816,0.9946156740188599,0.0625617578625679,1.0089999437332153,1,2202382,0,0.06284010410308838,0.0,2113207,0,0,0,0
2.310236999997869,baseline,2223675376,2202391,392,32,8167,-121,-15,-22,1,28.0625,0.01621021144092083,-0.0022950004786252975,0.9948620796203613,0.019272809848189354,0.09844913333654404,-0.31856846809387207,-0.181498184800148,0.10285013914108276,18.186805725097656,-0.13217270374298096,0.9334882497787476,-0.11170278489589691,0.7512333989143372,-0.025082945823669434,0.13632804155349731,0.9953152537345886,0.13861633837223053,1.0089999437332153,1,2202392,0,0.13922367990016937,0.0,2113217,0,0,0,0
2.320417800001451,baseline,2223685460,2202401,400,20,8151,-104,-12,-1,1,28.125,0.010705983266234398,-0.0019392726244404912,0.9945152401924133,0.003440268337726593,-0.025076638907194138,0.1262202113866806,-0.18141809105873108,0.10301512479782104,18.18509292602539,-0.13638193905353546,0.6482856869697571,-0.11165929585695267,0.7513015866279602,-0.024722643196582794,-0.10301589965820312,0.9946384429931641,0.10594095289707184,1.0089999437332153,1,2202402,0,0.1057560071349144,0.0,2113227,0,0,0,0
2.3300919000030262,baseline,2223694536,2202410,384,12,8160,-114,-13,-5,1,28.125,0.013157603330910206,-0.0018074893159791827,0.9945629239082336,0.028657764196395874,-0.04933273047208786,0.12719491124153137,-0.1818522810935974,0.1020439863204956,18.18778419494629,-0.10412754863500595,0.7579509019851685,-0.11205688863992691,0.75042724609375,0.00792934000492096,0.007523655891418457,0.9946516156196594,0.0109306825324893,1.0080000162124634,1,2202412,0,0.04877696931362152,0.0,2113237,0,0,0,0
2.3402007999975467,baseline,2223704620,2202420,390,19,8135,-86,-18,-25,3,28.15625,0.013974687084555626,-0.0021500680595636368,0.9936239719390869,-0.03626585751771927,0.18320314586162567,-0.42560288310050964,-0.18161913752555847,0.10381561517715454,18.185707092285156,-0.12398012727499008,0.8057735562324524,-0.11182373017072678,0.7521988749504089,-0.012156397104263306,0.05357468128204346,0.9937245845794678,0.05493655055761337,1.0089999437332153,1,2202422,0,0.012531605549156666,0.0,2113247,0,0,0,0
2.350268700000015,baseline,2223714704,2202430,396,25,8143,-87,-8,-1,3,28.09375,0.011534098535776138,-0.0023706923238933086,0.9935490489006042,0.023484982550144196,-0.08665014803409576,0.18770697712898254,-0.18177488446235657,0.1040964126586914,18.184926986694336,-0.13671232759952545,0.6651142239570618,-0.11197947710752487,0.7524796724319458,-0.02473285049200058,-0.08736544847488403,0.9936187863349915,0.09079886972904205,1.0080000162124634,1,2202432,0,0.08294285833835602,0.0,2113257,0,0,0,0
2.360183600001619,baseline,2223724788,2202440,402,35,8142,-169,-12,-10,1,28.140625,0.015201698057353497,-0.001955135725438595,0.993947446346283,0.01843065768480301,-0.0567287914454937,0.035241786390542984,-0.18188634514808655,0.10328328609466553,18.18720817565918,-0.11270301789045334,0.9291887879371643,-0.11209094524383545,0.7516665458679199,-0.0006120726466178894,0.17752224206924438,0.994080126285553,0.17752330005168915,1.0080000162124634,1,2202441,0,0.17803677916526794,0.0,2113266,0,0,0,0
2.3701819999987492,baseline,2223734871,2202450,386,16,8149,-77,-19,-20,2,28.015625,0.012220736593008041,-0.002064642496407032,0.9939358830451965,-0.01701090857386589,0.1195736676454544,-0.33086565136909485,-0.181710883975029,0.1041443943977356,18.18476104736328,-0.12356862425804138,0.685287356376648,-0.1119154840707779,0.75252765417099,-0.011653140187263489,-0.06724029779434204,0.9940804839134216,0.06824260950088501,1.0089999437332153,1,2202451,0,0.06785661727190018,0.0,2113276,0,0,0,0
2.3801851000025636,baseline,2223744955,2202460,414,35,8135,-90,-6,2,2,28.234375,0.011726686730980873,-0.003005562350153923,0.9939569234848022,0.005087592639029026,-0.17023250460624695,0.23243391513824463,-0.18177655339241028,0.10324424505233765,18.184492111206055,-0.1725672036409378,0.6680891513824463,-0.11201538890600204,0.7514128684997559,-0.06055181473493576,-0.08332371711730957,0.9939807653427124,0.10300176590681076,1.0080000162124634,1,2202461,0,0.10296410322189331,0.0,2113286,0,0,0,0
