host_time_s,stage,timestamp_us,sequence,raw_temperature,raw_accel_x,raw_accel_y,raw_accel_z,raw_gyro_x,raw_gyro_y,raw_gyro_z,temperature_c,accel_x_g,accel_y_g,accel_z_g,gyro_x_dps,gyro_y_dps,gyro_z_dps,roll_deg,pitch_deg,yaw_deg,roll_acc_deg,pitch_acc_deg,roll_gyro_deg,pitch_gyro_deg,roll_residual_deg,pitch_residual_deg,accel_norm_g,accel_residual_deg,dt_ms,gyro_bias_ready,imu_data_ready_count,imu_poll_ready_count,fusion_acceleration_error_deg,fusion_acceleration_recovery_trigger,fusion_accel_correction_count,fusion_accelerometer_ignored,fusion_acceleration_recovery,fusion_angular_rate_recovery,fusion_accel_norm_rejected
1.0999938240274787e-06,baseline,1603028841,1586887,406,-1,8150,-93,-11,-9,0,28.171875,0.010847922414541245,-3.0366449209395796e-05,0.9944770336151123,0.04132574051618576,-0.06800699979066849,-0.028015557676553726,-0.06619644165039062,-0.00551295280456543,14.904410362243652,-0.001749532064422965,0.6249671578407288,0.0035989591851830482,0.642870306968689,-0.005348491482436657,-0.017903149127960205,0.9945362210273743,0.01868499629199505,1.0080000162124634,1,1586888,0,0.0184846892952919,0.0,1516887,0,0,0,0
0.010142699989955872,baseline,1603038925,1586897,396,-2,8134,-94,-13,-8,3,28.125,0.010908647440373898,-3.93013542634435e-05,0.9941580295562744,0.004456169903278351,0.010210704058408737,-0.012112637981772423,-0.0662933960556984,-0.005818307399749756,14.904022216796875,-0.0022650340106338263,0.6286670565605164,0.0035020029172301292,0.6425649523735046,-0.005767037160694599,-0.013897895812988281,0.9942178726196289,0.015046934597194195,1.0089999437332153,1,1586899,0,0.017618712037801743,0.0,1516897,0,0,0,0
0.02059299999382347,baseline,1603050017,1586908,390,-4,8143,-82,-14,-9,4,28.046875,0.010262532159686089,-0.00013502530055120587,0.9937139749526978,-0.053444795310497284,-0.02441234700381756,-0.02049030363559723,-0.0662350207567215,-0.006044209003448486,14.903778076171875,-0.007666030433028936,0.5993683934211731,0.003607451915740967,0.6422935724258423,-0.01127348281443119,-0.04292517900466919,0.9938747882843018,0.044380880892276764,1.0089999437332153,1,1586909,0,0.04413939639925957,0.0,1516907,0,0,0,0
0.03050989999610465,baseline,1603059092,1586918,394,-9,8143,-82,-15,-11,2,28.078125,0.01118957158178091,0.0007569147273898125,0.9936929941177368,0.004517553839832544,0.05426330864429474,-0.0660397857427597,-0.06601842492818832,-0.005863368511199951,14.903426170349121,0.043643269687891006,0.6451569199562073,0.0037769759073853493,0.6425560712814331,0.03961712121963501,-0.00613635778427124,0.9940385818481445,0.04008954018354416,1.0080000162124634,1,1586919,0,0.040073901414871216,0.0,1516917,0,0,0,0
0.040354599987040274,baseline,1603069176,1586927,380,4,8146,-65,-14,-7,2,28.1875,0.010287263430655003,0.0002518314868211746,0.9941502809524536,-0.009410904720425606,-0.006914148107171059,0.0032952656038105488,-0.0659206435084343,-0.005919337272644043,14.903153419494629,0.014513783156871796,0.5928637981414795,0.0038747580256313086,0.6424639225006104,0.010639024898409843,-0.04960012435913086,0.9942035675048828,0.05072830617427826,1.0089999437332153,1,1586929,0,0.051248759031295776,0.0,1516927,0,0,0,0
0.050595399996382184,baseline,1603080269,1586938,400,10,8139,-91,-12,-9,4,28.125,0.01106030773371458,-0.0005123309674672782,0.9941480159759521,-0.02940351516008377,-0.03190595656633377,0.0055508846417069435,-0.065879687666893,-0.006315290927886963,14.903287887573242,-0.029527191072702408,0.6374128460884094,0.00392342172563076,0.6420068144798279,-0.036577582359313965,-0.0030504465103149414,0.994228184223175,0.03670455887913704,1.0080000162124634,1,1586939,0,0.0366983525454998,0.0,1516937,0,0,0,0
0.060116199994808994,baseline,1603089344,1586947,396,-4,8150,-97,-12,-10,1,28.09375,0.011251467280089855,-0.00036213966086506844,0.9944686889648438,0.02505839616060257,-0.04710671678185463,-0.038576412945985794,-0.0660071074962616,-0.006863415241241455,14.902941703796387,-0.017552874982357025,0.653511106967926,0.0037670207675546408,0.6414560079574585,-0.02131989598274231,0.01205509901046753,0.9946749806404114,0.024492107331752777,1.0089999437332153,1,1586948,0,0.024648262187838554,0.0,1516946,0,0,0,0
0.07035169999289792,baseline,1603099428,1586957,400,-4,8147,-93,-17,-9,1,28.125,0.011202973313629627,2.175964618800208e-05,0.9941068887710571,0.025050809606909752,0.019627908244729042,-0.014327257871627808,-0.06616706401109695,-0.007107675075531006,14.90255069732666,0.007750994060188532,0.6359293460845947,0.003628334729000926,0.6412755846977234,0.0041226595640182495,-0.005346238613128662,0.9940767288208008,0.0067511918023228645,1.0080000162124634,1,1586958,0,0.006486072670668364,0.0,1516956,0,0,0,0
0.08025799998722505,baseline,1603109512,1586967,392,12,8157,-110,-14,-9,2,28.0625,0.011989452876150608,0.00012586201773956418,0.9943930506706238,-0.0217412281781435,0.006682420615106821,-0.006644736044108868,-0.0659184455871582,-0.007249236106872559,14.90278434753418,-0.008397656492888927,0.7048507928848267,0.0039020779076963663,0.6411531567573547,-0.01229973416775465,0.06369763612747192,0.9947380423545837,0.06487428396940231,1.0080000162124634,1,1586968,0,0.06523621827363968,0.0,1516966,0,0,0,0
0.09046409999427851,baseline,1603119593,1586977,390,4,8146,-90,-14,-10,3,28.046875,0.011467567645013332,-0.00015962218458298594,0.9944330453872681,-0.0195514764636755,0.011110993102192879,-0.0319787934422493,-0.06581838428974152,-0.007177114486694336,14.902350425720215,-0.018894638866186142,0.6675055623054504,0.003984866663813591,0.6412061452865601,-0.022879505529999733,0.02629941701889038,0.9944154620170593,0.03485872969031334,1.0089999437332153,1,1586978,0,0.0351133868098259,0.0,1516976,0,0,0,0
0.10007469999254681,baseline,1603129677,1586987,400,-3,8147,-110,-12,-10,2,28.125,0.012412913143634796,-0.00040403479943051934,0.9942575693130493,0.0013278620317578316,-0.017080456018447876,-0.05834449827671051,-0.06596530228853226,-0.007192730903625488,14.90182113647461,-0.010665488429367542,0.7178859710693359,0.00383009877987206,0.6411905288696289,-0.014495586976408958,0.07669544219970703,0.9942977428436279,0.07805327326059341,1.0089999437332153,1,1586988,0,0.0784357562661171,0.0,1516986,0,0,0,0
0.11027939998893999,baseline,1603139761,1586997,388,-5,8142,-93,-14,-10,3,28.03125,0.01166770700365305,-0.00025059838662855327,0.9934548735618591,-0.01966150850057602,0.031262144446372986,-0.033588867634534836,-0.06601335108280182,-0.006890594959259033,14.901531219482422,-0.014452825300395489,0.6728836894035339,0.003790609771385789,0.6415244936943054,-0.0014359913766384125,0.03621762990951538,0.9936331510543823,0.03624608740210533,1.0089999437332153,1,1586998,0,0.03661292791366577,0.0,1516996,0,0,0,0
0.12024759998894297,baseline,1603149845,1587007,394,-7,8138,-97,-13,-10,3,28.078125,0.011743361130356789,0.0002577757113613188,0.9939886927604675,0.006150415167212486,-0.0012484733015298843,-0.0283806174993515,-0.06634575128555298,-0.006543338298797607,14.901379585266113,0.014858781360089779,0.6768826842308044,0.003449651412665844,0.6418399214744568,0.011409129947423935,0.035042762756347656,0.9940811991691589,0.03318405896425247,1.0089999437332153,1,1587008,0,0.03351949527859688,0.0,1517006,0,0,0,0
0.13013749998935964,baseline,1603158921,1587016,404,7,8135,-102,-12,-9,4,28.0625,0.011319643817842007,2.424346166662872e-05,0.9939423203468323,-0.006295869126915932,-0.005804125219583511,-0.030910732224583626,-0.06626752018928528,-0.006692945957183838,14.901217460632324,0.001397513784468174,0.652492344379425,0.0035278787836432457,0.6416903138160706,-0.0021303649991750717,0.010802030563354492,0.9940068125724792,0.01101010013371706,1.0080000162124634,1,1587018,0,0.02191060595214367,0.0,1517016,0,0,0,0
0.1401717999979155,baseline,1603169005,1587026,402,-3,8139,-100,-15,-9,3,28.140625,0.012187760323286057,-5.602787859970704e-05,0.9934162497520447,0.00351510476320982,0.021694770082831383,-0.03686008229851723,-0.0663524642586708,-0.006659090518951416,14.900872230529785,-0.003231436014175415,0.7028998732566833,0.0034429365769028664,0.641724169254303,-0.006674372591078281,0.06117570400238037,0.993490993976593,0.06153871864080429,1.0080000162124634,1,1587027,0,0.07454836368560791,0.0,1517026,0,0,0,0
0.1503375999891432,baseline,1603179089,1587036,388,-4,8146,-102,-14,-10,4,28.09375,0.011741606518626213,-0.0001744794426485896,0.9941707253456116,-0.035136330872774124,-0.006540716625750065,-0.04075923189520836,-0.06646834313869476,-0.006557047367095947,14.900556564331055,-0.01005555223673582,0.6766576170921326,0.0033270535059273243,0.6418262124061584,-0.013382606208324432,0.03483140468597412,0.9942401051521301,0.03731381520628929,1.0080000162124634,1,1587038,0,0.03428085520863533,0.0,1517036,0,0,0,0
0.16032919999270234,baseline,1603189173,1587046,400,1,8138,-104,-13,-9,3,28.03125,0.012490182183682919,-0.0002494284126441926,0.9938527941703796,-0.015086159110069275,0.038464054465293884,-0.02147405780851841,-0.06639907509088516,-0.006102383136749268,14.900344848632812,-0.014379589818418026,0.7200231552124023,0.003396325744688511,0.6422808766365051,-0.017775915563106537,0.07774227857589722,0.9939312934875488,0.07974863797426224,1.0080000162124634,1,1587047,0,0.07326612621545792,0.0,1517046,0,0,0,0
0.1701349999930244,baseline,1603199255,1587056,408,3,8138,-89,-13,-9,1,28.1875,0.010611681267619133,-0.0005803375388495624,0.9935113787651062,0.02126311883330345,0.0033370517194271088,-0.020684387534856796,-0.06667321175336838,-0.005970656871795654,14.899992942810059,-0.02815992571413517,0.6287730932235718,0.003122188849374652,0.6424126029014587,-0.03128211572766304,-0.013639509677886963,0.993574321269989,0.03412633761763573,1.0080000162124634,1,1587057,0,0.03407401591539383,0.0,1517055,0,0,0,0
0.1801007999893045,baseline,1603209339,1587066,402,-2,8143,-83,-15,-7,4,28.140625,0.0105161527171731,-0.00015088115469552577,0.9937350749969482,0.005835110321640968,0.007955024018883705,0.025597767904400826,-0.06707631796598434,-0.005999624729156494,14.90009880065918,0.008307314477860928,0.5938140749931335,0.0027457070536911488,0.6423776745796204,0.005561607424169779,-0.048563599586486816,0.9938721656799316,0.04888102784752846,1.0080000162124634,1,1587067,0,0.0486113578081131,0.0,1517065,0,0,0,0
0.19018719998712186,baseline,1603219423,1587076,412,3,8145,-87,-13,-11,5,28.21875,0.011094657704234123,0.0003391358768567443,0.9940295815467834,-0.015172053128480911,-0.01604553684592247,-0.04423142969608307,-0.06693582981824875,-0.006250858306884766,14.900055885314941,0.015329492278397083,0.6361611485481262,0.0028922460041940212,0.6421113610267639,0.01243724673986435,-0.005950212478637695,0.9942246675491333,0.013787318021059036,1.0080000162124634,1,1587077,0,0.013702125288546085,0.0,1517075,0,0,0,0
0.2004869999946095,baseline,1603230515,1587087,408,-1,8140,-79,-10,-7,1,28.1875,0.01062267366796732,0.00017989700427278876,0.9934236407279968,-0.00521550327539444,-0.032102204859256744,0.013780844397842884,-0.0667724534869194,-0.006439030170440674,14.899746894836426,0.02101113647222519,0.6192688941955566,0.003032312961295247,0.641903817653656,0.01797882281243801,-0.022634923458099365,0.9935567378997803,0.028906363993883133,1.0089999437332153,1,1587088,0,0.02871798910200596,0.0,1517086,0,0,0,0
0.21025549998739734,baseline,1603239591,1587096,394,-5,8140,-92,-13,-8,1,28.078125,0.011297394521534443,3.07147201965563e-05,0.9934849143028259,0.026193955913186073,-0.026526451110839844,0.03185306489467621,-0.06668071448802948,-0.006658077239990234,14.90020751953125,0.010421263985335827,0.6708964109420776,0.003117934800684452,0.6417042016983032,0.007303329184651375,0.029192209243774414,0.9936957359313965,0.030091920867562294,1.0080000162124634,1,1587097,0,0.03039495460689068,0.0,1517095,0,0,0,0
0.22024089998740237,baseline,1603249674,1587106,396,-4,8141,-100,-14,-14,2,28.09375,0.012296565808355808,0.00042298337211832404,0.9938562512397766,-0.007604742422699928,0.01442473754286766,-0.14165136218070984,-0.06641656160354614,-0.006290316581726074,14.899620056152344,0.027209846302866936,0.6978849172592163,0.0033906525932252407,0.6421336531639099,0.023819193243980408,0.055751264095306396,0.9940913915634155,0.060626376420259476,1.0080000162124634,1,1587107,0,0.06099469214677811,0.0,1517105,0,0,0,0
0.23028319999866653,baseline,1603259758,1587116,418,-10,8139,-83,-15,-8,2,28.265625,0.010610289871692657,0.0002264955110149458,0.9938744306564331,-0.00947142019867897,0.01595643162727356,0.014408769086003304,-0.06617587804794312,-0.006117641925811768,14.89895248413086,0.013057219795882702,0.6116483807563782,0.0036398032680153847,0.6422968506813049,0.014041380025446415,-0.026156842708587646,0.9940322637557983,0.029687384143471718,1.0080000162124634,1,1587117,0,0.029413694515824318,0.0,1517115,0,0,0,0
0.24025379998784047,baseline,1603268833,1587126,400,-4,8143,-96,-15,-7,1,28.125,0.01080932468175888,0.000326756970025599,0.9945575594902039,0.03566495701670647,0.04766000062227249,0.08318877965211868,-0.06622710078954697,-0.00599360466003418,14.899628639221191,0.018824245780706406,0.6226932406425476,0.0035682967863976955,0.6423896551132202,0.015255948528647423,-0.019696414470672607,0.9945911765098572,0.020605623722076416,1.0080000162124634,1,1587127,0,0.02048371732234955,0.0,1517125,0,0,0,0
0.2503957000008086,baseline,1603278917,1587136,404,-1,8144,-88,-13,-12,3,28.15625,0.01113076414912939,0.0003263946855440736,0.9945123791694641,-0.004437876865267754,-0.013026939705014229,-0.13121235370635986,-0.06603550910949707,-0.005919933319091797,14.899246215820312,0.01880422793328762,0.6412380337715149,0.0037598933558911085,0.6424333453178406,0.00980799738317728,-0.0069506168365478516,0.9945340156555176,0.012021142989397049,1.0089999437332153,1,1587137,0,0.01188697200268507,0.0,1517135,0,0,0,0
0.2601385999878403,baseline,1603289001,1587145,392,3,8141,-86,-11,-9,3,28.0625,0.011012287810444832,-8.251571853179485e-05,0.9938352704048157,-0.010657287202775478,-0.06931895017623901,-0.03802558779716492,-0.0659085288643837,-0.006360054016113281,14.898366928100586,-0.004757128655910492,0.6256800293922424,0.003886871738359332,0.6420232057571411,-0.008644000627100468,-0.01634317636489868,0.9938945174217224,0.0184883251786232,1.0080000162124634,1,1587146,0,0.018290502950549126,0.0,1517145,0,0,0,0
0.2701550999918254,baseline,1603299084,1587155,388,-6,8135,-94,-12,-8,4,28.03125,0.011846967041492462,-0.00026917282957583666,0.9938181042671204,-0.023450706154108047,-0.05098532512784004,0.02577357180416584,-0.06577330082654953,-0.006674349308013916,14.898377418518066,0.01484700571745634,0.6840308904647827,0.004022097215056419,0.6417089104652405,0.010824908502399921,0.042321979999542236,0.9938889741897583,0.04368441924452782,1.0080000162124634,1,1587156,0,0.051401685923337936,0.0,1517155,0,0,0,0
0.2805062999977963,baseline,1603309168,1587166,408,7,8153,-100,-14,-12,4,28.1875,0.01159429457038641,8.984030864667147e-05,0.9938310384750366,-0.042481325566768646,0.03689906373620033,-0.08831608295440674,-0.06541323661804199,-0.00656735897064209,14.897883415222168,0.005179421976208687,0.6683973670005798,0.004382163751870394,0.6418159008026123,0.0007972582243382931,0.02658146619796753,0.9941049218177795,0.038942594081163406,1.0059999227523804,1,1587167,0,0.0392744317650795,0.0,1517165,0,0,0,0
0.29017889998795,baseline,1603319252,1587175,400,-10,8130,-70,-11,-9,1,28.125,0.01059071347117424,6.171540007926524e-06,0.993726909160614,0.03614184260368347,-0.048647861927747726,-0.017208708450198174,-0.06554840505123138,-0.006650388240814209,14.897515296936035,0.009228769689798355,0.6108272075653076,0.004246998578310013,0.6417328715324402,0.004981771111488342,-0.03090566396713257,0.9938684105873108,0.031304601579904556,1.0080000162124634,1,1587176,0,0.031087851151823997,0.0,1517174,0,0,0,0
0.30012689999421127,baseline,1603330344,1587186,398,-4,8151,-86,-17,-10,0,28.109375,0.011401109397411346,0.0003351423074491322,0.9943451285362244,0.04577447101473808,0.03932284563779831,-0.03310224041342735,-0.06557845324277878,-0.006626546382904053,14.89734935760498,0.019311442971229553,0.6569216251373291,0.00421694852411747,0.641834557056427,0.03547229245305061,0.014587879180908203,0.9944943785667419,0.0383547879755497,1.0080000162124634,1,1587187,0,0.0385119691491127,0.0,1517185,0,0,0,0
0.31025289998797234,baseline,1603339419,1587195,404,-3,8138,-98,-13,-10,2,28.15625,0.010902242735028267,0.0002327850816072896,0.9939135313034058,-0.01047209557145834,0.02015029452741146,-0.04394703358411789,-0.06551482528448105,-0.006075918674468994,14.896970748901367,0.00013037909229751676,0.6292351484298706,0.004291802179068327,0.6423073410987854,-0.004161423072218895,-0.013072192668914795,0.9939514398574829,0.013718588277697563,1.0089999437332153,1,1587196,0,0.013436851091682911,0.0,1517194,0,0,0,0
0.32031919999280944,baseline,1603349503,1587205,392,3,8138,-98,-12,-8,3,28.0625,0.01040730718523264,-0.0004831564729101956,0.9937615990638733,-0.003157280385494232,-0.025255940854549408,0.004457178059965372,-0.06555262953042984,-0.006174743175506592,14.896842002868652,-0.03682893142104149,0.6085860133171082,0.004230951424688101,0.6422085165977478,-0.04105988144874573,-0.03362250328063965,0.9939360618591309,0.05306963995099068,1.0080000162124634,1,1587206,0,0.05295957252383232,0.0,1517204,0,0,0,0
0.3303363999875728,baseline,1603359587,1587215,408,-11,8145,-103,-11,-11,2,28.1875,0.011420871131122112,-9.101221803575754e-05,0.994405210018158,-0.022477256134152412,-0.07854261994361877,-0.0614444762468338,-0.06563635915517807,-0.006796360015869141,14.896580696105957,0.0011653511319309473,0.663013756275177,0.004178652074187994,0.6415581107139587,-0.0030133009422570467,0.02145564556121826,0.9944104552268982,0.021666212007403374,1.0080000162124634,1,1587216,0,0.021958090364933014,0.0,1517214,0,0,0,0
0.34037329998682253,baseline,1603369671,1587225,400,-4,8132,-87,-11,-10,2,28.125,0.011695384979248047,2.7388479793444276e-05,0.9934280514717102,-0.005452972836792469,-0.07267609238624573,-0.048220954835414886,-0.06550855189561844,-0.006859838962554932,14.896109580993652,-0.006487921811640263,0.6580439209938049,0.0042708683758974075,0.6414651870727539,-0.01075879018753767,0.016578733921051025,0.993374228477478,0.019763754680752754,1.0080000162124634,1,1587226,0,0.019998185336589813,0.0,1517224,0,0,0,0
0.3501405999995768,baseline,1603378746,1587235,412,-2,8136,-98,-15,-7,0,28.21875,0.012465707026422024,-0.00015503627946600318,0.993122398853302,0.05855501443147659,0.020726963877677917,0.027812156826257706,-0.06594761461019516,-0.006641685962677002,14.8961763381958,-0.008944440633058548,0.719140887260437,0.003847787156701088,0.6417415738105774,-0.012792227789759636,0.07739931344985962,0.9932798743247986,0.056466322392225266,1.0080000162124634,1,1587236,0,0.056873660534620285,0.0,1517234,0,0,0,0
0.3603768999892054,baseline,1603389839,1587245,396,7,8148,-86,-14,-9,1,28.09375,0.010922735556960106,-3.6152079701423645e-05,0.9945070147514343,0.01042952947318554,0.015537682920694351,-0.016024285927414894,-0.06610213965177536,-0.006298661231994629,14.89618968963623,-0.002082802588120103,0.6278162002563477,0.0036759129725396633,0.6421318650245667,-0.013239307329058647,-0.014315664768218994,0.9942376017570496,0.019499165937304497,1.0080000162124634,1,1587246,0,0.01926073431968689,0.0,1517244,0,0,0,0
0.3702651999919908,baseline,1603398914,1587255,396,14,8143,-105,-13,-9,4,28.09375,0.011235290206968784,-0.0006469204090535641,0.993654727935791,-0.021202847361564636,-0.040541619062423706,-0.026831554248929024,-0.06627270579338074,-0.006456315517425537,14.895853996276855,-0.037302497774362564,0.6478177905082703,0.003522691549733281,0.6419269442558289,-0.04082518815994263,0.005890846252441406,0.9937184453010559,0.04309294745326042,1.0080000162124634,1,1587256,0,0.04319918900728226,0.0,1517254,0,0,0,0
0.3802422999870032,baseline,1603408998,1587264,404,-4,8135,-93,-11,-9,2,28.203125,0.01151898130774498,-0.00025475453003309667,0.9938544034957886,0.001681455411016941,-0.052835822105407715,-0.02891697734594345,-0.06637048721313477,-0.006671786308288574,14.895471572875977,-0.014686618000268936,0.6640403866767883,0.003424909198656678,0.6417114734649658,-0.01811152696609497,0.02232891321182251,0.9939212203025818,0.028750786557793617,1.0080000162124634,1,1587266,0,0.009030100889503956,0.0,1517264,0,0,0,0
0.39030639998964034,baseline,1603419082,1587274,412,-6,8150,-99,-14,-4,4,28.21875,0.011104688979685307,-4.96876600664109e-05,0.9940181374549866,-0.03219161555171013,0.007019749842584133,0.04569307342171669,-0.06618606299161911,-0.006401717662811279,14.895245552062988,-0.0028640253003686666,0.6400540471076965,0.0036093394737690687,0.6419815421104431,-0.006473364774137735,-0.010824263095855713,0.994097888469696,0.011530197225511074,1.0080000162124634,1,1587276,0,0.011270882561802864,0.0,1517274,0,0,0,0
0.40016130000003614,baseline,1603430174,1587285,404,1,8135,-82,-10,-10,1,28.15625,0.00998192559927702,-0.0002001779357669875,0.9939976334571838,0.03944925218820572,-0.1055375188589096,0.02276313118636608,-0.06608591973781586,-0.007261753082275391,14.89608383178711,0.002567038405686617,0.5845378041267395,0.0037094810977578163,0.641121506690979,-0.0011424426920711994,-0.0565837025642395,0.9940493106842041,0.05659523606300354,1.0089999437332153,1,1587286,0,0.05645601823925972,0.0,1517284,0,0,0,0
0.4104850000003353,baseline,1603439250,1587295,400,0,8141,-99,-11,-13,2,28.125,0.011871052905917168,-0.00040447383071295917,0.993949830532074,0.0107881436124444,-0.051662079989910126,-0.08794748038053513,-0.06625916063785553,-0.007820487022399902,14.89578914642334,-0.023315707221627235,0.6842687726020813,0.003536238567903638,0.6405627727508545,-0.026851946488022804,0.04370599985122681,0.9940208196640015,0.05647801235318184,1.0089999437332153,1,1587296,0,0.056774236261844635,0.0,1517294,0,0,0,0
0.4203730000008363,baseline,1603449334,1587304,400,3,8139,-100,-13,-11,0,28.125,0.012338425032794476,-0.0006163835641928017,0.9936557412147522,0.05364830419421196,-0.02753528021275997,-0.05723048001527786,-0.06673730164766312,-0.00787806510925293,14.89488410949707,-0.03554166108369827,0.7114166617393494,0.0030580947641283274,0.6405051946640015,-0.038599755614995956,0.0709114670753479,0.9937325119972229,0.08073646575212479,1.0080000162124634,1,1587305,0,0.08110420405864716,0.0,1517304,0,0,0,0
0.4300636999978451,baseline,1603459418,1587314,400,0,8144,-104,-17,-7,4,28.125,0.011252331547439098,-0.000309751951135695,0.9943408966064453,-0.017426947131752968,0.06577880680561066,0.01901642605662346,-0.06713961064815521,-0.007849276065826416,14.894765853881836,-0.015020240098237991,0.6538400053977966,0.0026656719855964184,0.6406081914901733,-0.017685912549495697,0.013231813907623291,0.9942383766174316,0.022087832912802696,1.0080000162124634,1,1587315,0,0.022326745092868805,0.0,1517313,0,0,0,0
0.4404676999984076,baseline,1603469501,1587324,402,-5,8159,-97,-12,-8,3,28.140625,0.011069055646657944,-0.0003790739574469626,0.9944331049919128,-0.026438836008310318,-0.009442400187253952,-0.0279429629445076,-0.06709268689155579,-0.007325232028961182,14.894822120666504,-0.004990681074559689,0.6402544975280762,0.0027027151081711054,0.6410580277442932,-0.00769339594990015,-0.000803530216217041,0.99460369348526,0.007735243998467922,1.0089999437332153,1,1587325,0,0.007691783830523491,0.0,1517323,0,0,0,0
0.45060719999310095,baseline,1603479583,1587334,408,-5,8139,-100,-13,-11,4,28.0625,0.011137902736663818,0.00044827445526607335,0.9939842820167542,-0.014678637497127056,-0.02114393562078476,-0.08560686558485031,-0.06693776696920395,-0.00798887014389038,14.894028663635254,0.025839677080512047,0.641990065574646,0.002857629442587495,0.640394389629364,0.022982047870755196,0.0015956759452819824,0.9940468072891235,0.023037375882267952,1.0080000162124634,1,1587335,0,0.028694413602352142,0.0,1517334,0,0,0,0
0.4605757999961497,baseline,1603489667,1587344,396,-7,8146,-104,-15,-6,3,28.09375,0.01206151582300663,0.0005109674530103803,0.9949290752410889,-0.01697337068617344,0.019148949533700943,0.007165152579545975,-0.06665342301130295,-0.007987916469573975,14.893536567687988,0.03368154913187027,0.6981945633888245,0.0031419750303030014,0.6403953433036804,0.03053957410156727,0.05779922008514404,0.9948974847793579,0.06537136435508728,1.0080000162124634,1,1587345,0,0.06572526693344116,0.0,1517343,0,0,0,0
0.47010569999110885,baseline,1603498743,1587354,396,-6,8148,-104,-11,-6,2,28.09375,0.012031237594783306,0.00045374620822258294,0.9943813681602478,-0.009249248541891575,-0.02874915674328804,0.05308593064546585,-0.06661076098680496,-0.0076999664306640625,14.893739700317383,0.026144638657569885,0.6932002902030945,0.0031846396159380674,0.6406832933425903,0.02295999974012375,0.05251699686050415,0.9944542050361633,0.05436741188168526,1.0080000162124634,1,1587355,0,0.05470040813088417,0.0,1517353,0,0,0,0
0.480372099991655,baseline,1603509835,1587364,406,7,8133,-90,-14,-12,3,28.171875,0.011300040408968925,-0.00019166043784935027,0.9942860007286072,-0.02698747254908085,-0.036500148475170135,-0.07074971497058868,-0.06653711199760437,-0.007810473442077637,14.893694877624512,-0.011044441722333431,0.6511373519897461,0.0032943214755505323,0.6405552625656128,-0.017053483054041862,0.007894396781921387,0.9940750002861023,0.01879209466278553,1.0080000162124634,1,1587365,0,0.018896237015724182,0.0,1517363,0,0,0,0
0.4905498999869451,baseline,1603519919,1587374,404,21,8147,-104,-12,-9,4,28.15625,0.011215118691325188,-0.0006555435829795897,0.9944453239440918,-0.026263684034347534,-0.058347225189208984,-0.05466441065073013,-0.06651420891284943,-0.008450627326965332,14.892786979675293,-0.04963114857673645,0.6563761830329895,0.003278454067185521,0.639894425868988,-0.05290960147976875,0.016481757164001465,0.9944239258766174,0.055417273193597794,1.0080000162124634,1,1587375,0,0.0555342473089695,0.0,1517373,0,0,0,0
0.5002711999986786,baseline,1603530003,1587384,404,12,8138,-113,-17,-8,3,28.15625,0.012615043669939041,-0.001026093028485775,0.9941284656524658,-0.007926822640001774,0.03542518988251686,0.027137739583849907,-0.06681999564170837,-0.00828540325164795,14.89285659790039,-0.05311434343457222,0.7345588207244873,0.0029754049610346556,0.6400978565216064,-0.056089747697114944,0.09446096420288086,0.9940576553344727,0.10985869914293289,1.0080000162124634,1,1587385,0,0.11029975861310959,0.0,1517383,0,0,0,0
0.5101831999927526,baseline,1603539078,1587393,414,-4,8158,-105,-14,-10,2,28.234375,0.013241992332041264,-0.0006370871560648084,0.9940869808197021,-0.016860948875546455,0.004671846050769091,-0.023765692487359047,-0.06684964895248413,-0.007416665554046631,14.892748832702637,-0.033125318586826324,0.7547840476036072,0.0029457516502588987,0.6409665942192078,-0.03607106953859329,0.11381745338439941,0.9942399859428406,0.11939654499292374,1.0089999437332153,1,1587394,0,0.11983045935630798,0.0,1517393,0,0,0,0
0.5204322999925353,baseline,1603549162,1587404,402,-10,8143,-74,-11,-9,2,28.140625,0.009868115186691284,0.00021719456708524376,0.9943771362304688,0.004507438279688358,-0.06871326267719269,-0.019421802833676338,-0.0666835606098175,-0.007639169692993164,14.892447471618652,0.01251470111310482,0.5685798525810242,0.0031118395272642374,0.6407440900802612,0.009402861818671227,-0.07216423749923706,0.9944261312484741,0.06948165595531464,1.0080000162124634,1,1587405,0,0.06933876872062683,0.0,1517403,0,0,0,0
0.5303656999894883,baseline,1603559246,1587413,404,-3,8146,-86,-13,-8,3,28.125,0.010582801885902882,0.00016646413132548332,0.993986964225769,-0.016393624246120453,-0.05472481995820999,-0.004408398177474737,-0.06653527170419693,-0.008377671241760254,14.892400741577148,0.009595389477908611,0.6099948883056641,0.0032601249404251575,0.6400055885314941,0.006335264537483454,-0.030010700225830078,0.9940432906150818,0.0306720994412899,1.0089999437332153,1,1587414,0,0.0028420041780918837,0.0,1517413,0,0,0,0
0.5405395999987377,baseline,1603569330,1587423,394,3,8154,-92,-13,-9,3,28.171875,0.012434552423655987,3.2089643354993314e-05,0.994504988193512,-0.00036678602918982506,-0.049247629940509796,-0.013000572100281715,-0.06645390391349792,-0.008828997611999512,14.892187118530273,0.0018487601773813367,0.7163465619087219,0.0033414934296160936,0.6395542621612549,-0.001492733252234757,0.07679229974746704,0.9945827126502991,0.07680680602788925,1.0080000162124634,1,1587425,0,0.09442561864852905,0.0,1517423,0,0,0,0
0.5503907999955118,baseline,1603579414,1587433,408,1,8140,-94,-15,-10,3,28.1875,0.012304921634495258,-8.812832675175741e-05,0.9936894774436951,-0.02810610458254814,0.045923709869384766,-0.036146003752946854,-0.06640612334012985,-0.008503854274749756,14.89206600189209,-0.005081447772681713,0.7094610929489136,0.003389277495443821,0.6398794054985046,-0.008470725268125534,0.06958168745040894,0.993765652179718,0.07009539753198624,1.0080000162124634,1,1587434,0,0.07052812725305557,0.0,1517433,0,0,0,0
0.5601796999981161,baseline,1603589498,1587443,402,-4,8147,-87,-13,-10,3,28.140625,0.011520079337060452,0.0003825484018307179,0.9942456483840942,-0.0032381569035351276,0.0635305643081665,-0.02255110628902912,-0.06643635034561157,-0.0075490474700927734,14.89213752746582,0.015199410729110241,0.6465912461280823,0.0033735111355781555,0.6408722400665283,0.011825899593532085,0.005719006061553955,0.9944666028022766,0.01313616894185543,1.0080000162124634,1,1587444,0,0.013312885537743568,0.0,1517442,0,0,0,0
0.5705143999948632,baseline,1603599582,1587453,394,-11,8150,-90,-14,-10,2,28.078125,0.011172594502568245,0.0007792602991685271,0.9940235614776611,-2.4703331291675568e-06,0.003513811156153679,-0.06272781640291214,-0.06638588756322861,-0.007211446762084961,14.891656875610352,0.0467204824090004,0.650072455406189,0.0034095128066837788,0.6411718130111694,0.043310970067977905,0.008900642395019531,0.9940871000289917,0.04421607777476311,1.0080000162124634,1,1587454,0,0.04432830214500427,0.0,1517452,0,0,0,0
0.580146499996772,baseline,1603609665,1587463,392,17,8132,-99,-12,-8,1,28.0625,0.011294555850327015,-0.00024023685546126217,0.9937596321105957,0.025485388934612274,-0.0828966572880745,-0.005811160430312157,-0.06633025407791138,-0.007779121398925781,14.891216278076172,-0.013850993476808071,0.6511660814285278,0.0034651453606784344,0.6405447721481323,-0.03292052820324898,0.0278780460357666,0.9938490986824036,0.043138690292835236,1.0089999437332153,1,1587464,0,0.04337248206138611,0.0,1517462,0,0,0,0
0.590192699994077,baseline,1603619749,1587473,404,-1,8140,-103,-10,-9,0,28.15625,0.01183497253805399,0.00018877394904848188,0.9937089085578918,0.04504891484975815,-0.0876743346452713,-0.010981926694512367,-0.06662476062774658,-0.008420765399932861,14.891265869140625,0.010884425602853298,0.6823546290397644,0.0031706374138593674,0.6399135589599609,0.009367255493998528,0.054872989654541016,0.9936375021934509,0.05566678196191788,1.0089999437332153,1,1587474,0,0.05595666915178299,0.0,1517472,0,0,0,0
0.6003524999978254,baseline,1603629833,1587483,402,5,8144,-88,-12,-10,4,28.1875,0.011174592189490795,-8.146989421220496e-05,0.993955671787262,-0.023217713460326195,-0.04388227313756943,-0.05383419990539551,-0.06665392220020294,-0.008475303649902344,14.891193389892578,-0.004696267191320658,0.6441233158111572,0.003141475608572364,0.639907956123352,-0.007837742567062378,0.004215359687805176,0.9940184950828552,0.008899408392608166,1.0089999437332153,1,1587484,0,0.009018988348543644,0.0,1517483,0,0,0,0
0.6106025999906706,baseline,1603639917,1587493,396,-7,8138,-79,-10,-11,2,28.09375,0.010078049264848232,0.0004197117523290217,0.9938573837280273,0.0020828256383538246,-0.07889744639396667,-0.07682561874389648,-0.06650906801223755,-0.008819043636322021,14.89065933227539,0.030404306948184967,0.5892901420593262,0.0032941356766968966,0.6394578218460083,0.02711017057299614,-0.05016767978668213,0.9938969612121582,0.05702418461441994,1.0089999437332153,1,1587494,0,0.056884266436100006,0.0,1517492,0,0,0,0
0.6201539999892702,baseline,1603648993,1587502,400,-4,8142,-100,-10,-10,4,28.125,0.011712979525327682,-0.00026706827338784933,0.9943500757217407,-0.03306010738015175,-0.07546965777873993,-0.02530670166015625,-0.06632130593061447,-0.009766995906829834,14.890259742736816,-0.005139167886227369,0.6816315650939941,0.0034740911796689034,0.6386162638664246,-0.008613258600234985,0.04301530122756958,0.9944204688072205,0.043869175016880035,1.0080000162124634,1,1587503,0,0.034734513610601425,0.0,1517502,0,0,0,0
0.630280400000629,baseline,1603659075,1587512,396,7,8135,-87,-17,-9,4,28.015625,0.010889341123402119,-0.00018397983512841165,0.9940162301063538,-0.06038300320506096,0.04438713565468788,-0.02012554556131363,-0.06608603894710541,-0.00959080457687378,14.890020370483398,-0.010604724287986755,0.6276439428329468,0.003709359560161829,0.6387924551963806,-0.014314083382487297,-0.011148512363433838,0.9940758943557739,0.01814338192343712,1.0080000162124634,1,1587514,0,0.02449955604970455,0.0,1517512,0,0,0,0
0.640264899993781,baseline,1603669159,1587522,396,-8,8137,-75,-11,-10,3,27.96875,0.009648590348660946,0.0001501284132245928,0.9938864707946777,-0.0057564908638596535,-0.039411623030900955,-0.013977059163153172,-0.06587629020214081,-0.009815633296966553,14.889745712280273,0.008654635399580002,0.5562065243721008,0.003919106442481279,0.6385676264762878,0.0047355289570987225,-0.08236110210418701,0.9939333200454712,0.08249712735414505,1.0080000162124634,1,1587523,0,0.08935529738664627,0.0,1517522,0,0,0,0
0.6503159999992931,baseline,1603679242,1587532,396,0,8142,-93,-14,-9,0,28.03125,0.010226057842373848,0.00040734108188189566,0.9944406151771545,0.03266194462776184,0.026535913348197937,-0.03312210738658905,-0.06583807617425919,-0.009956955909729004,14.8894624710083,0.02346939966082573,0.589164674282074,0.0039573232643306255,0.6384263038635254,0.019512075930833817,-0.049261629581451416,0.994493305683136,0.05298518016934395,1.0089999437332153,1,1587534,0,0.05129367485642433,0.0,1517532,0,0,0,0
0.6603464999934658,baseline,1603689326,1587542,396,-10,8142,-98,-14,-10,3,28.046875,0.011153624393045902,0.00042025596485473216,0.9938533306121826,-0.016474850475788116,-0.007721885573118925,-0.040628187358379364,-0.06575508415699005,-0.010230183601379395,14.889119148254395,0.02422781102359295,0.6429808735847473,0.004040316212922335,0.638153076171875,0.0201874952763319,0.0048277974128723145,0.9939159750938416,0.02075674757361412,1.0089999437332153,1,1587544,0,0.024563901126384735,0.0,1517542,0,0,0,0
0.6703866999887396,baseline,1603699410,1587552,400,-10,8149,-111,-15,-11,3,28.125,0.013020815327763557,0.00012005855387542397,0.9943528771400452,0.007284882478415966,-0.018004342913627625,-0.04093091934919357,-0.06584569066762924,-0.010035872459411621,14.888978958129883,0.019207438454031944,0.7550613284111023,0.0039497073739767075,0.6383473873138428,0.015257731080055237,0.11671394109725952,0.9944443702697754,0.1177070215344429,1.0089999437332153,1,1587553,0,0.11813131719827652,0.0,1517551,0,0,0,0
0.6804913999949349,baseline,1603709494,1587562,400,-2,8133,-102,-17,-9,4,28.125,0.012907096184790134,0.00032038381323218346,0.9932586550712585,-0.04114231467247009,0.026107804849743843,-0.029610391706228256,-0.06575131416320801,-0.009492635726928711,14.888724327087402,0.012200137600302696,0.7492877840995789,0.004044084344059229,0.6388906240463257,0.008156053721904755,0.11039716005325317,0.9933091998100281,0.11069803684949875,1.0089999437332153,1,1587563,0,0.11116558313369751,0.0,1517561,0,0,0,0
0.6905207999952836,baseline,1603719578,1587572,408,-5,8138,-109,-13,-11,2,28.1875,0.0123245008289814,0.0003683274262584746,0.9940084218978882,-0.001503273844718933,-0.054040610790252686,-0.055935803800821304,-0.06560302525758743,-0.00949716567993164,14.888181686401367,0.01005171611905098,0.7137362360954285,0.004192371387034655,0.6388860940933228,0.005859344732016325,0.07485014200210571,0.9941065311431885,0.07507912814617157,1.0089999437332153,1,1587573,0,0.0754212737083435,0.0,1517571,0,0,0,0
0.700092200000654,baseline,1603729661,1587582,404,6,8139,-98,-13,-9,1,28.015625,0.012014578096568584,0.0001445072703063488,0.9942241907119751,0.02716449275612831,-0.009395468048751354,-0.04835011437535286,-0.06561103463172913,-0.009552955627441406,14.887840270996094,0.008327757008373737,0.6923499703407288,0.004184363875538111,0.638830304145813,0.004143393132835627,0.05351966619491577,0.9942967891693115,0.05367981642484665,1.0080000162124634,1,1587583,0,0.05404015630483627,0.0,1517582,0,0,0,0
0.7104051999922376,baseline,1603739745,1587592,410,-4,8142,-100,-11,-10,2,28.203125,0.01265888474881649,-0.00015252815501298755,0.9942867159843445,-0.0005794982425868511,-0.045588552951812744,-0.043640460819005966,-0.06570874154567719,-0.009301424026489258,14.887430191040039,-0.007396899163722992,0.7087087035179138,0.004077034071087837,0.6390686631202698,-0.01147393323481083,0.06964004039764404,0.9941653609275818,0.07057894021272659,1.0080000162124634,1,1587593,0,0.07091976702213287,0.0,1517591,0,0,0,0
0.7202069999912055,baseline,1603748820,1587602,414,-11,8144,-89,-14,-9,2,28.234375,0.011567771434783936,0.00024090154329314828,0.994236409664154,0.004210441838949919,-0.02547844871878624,-0.027940284460783005,-0.06573066860437393,-0.009370088577270508,14.886984825134277,0.013882655650377274,0.666596531867981,0.004064732696861029,0.6390131711959839,0.009817922487854958,0.02758336067199707,0.9943037033081055,0.029913289472460747,1.0080000162124634,1,1587603,0,0.030219674110412598,0.0,1517601,0,0,0,0
0.7302938999928301,baseline,1603758903,1587612,404,2,8135,-98,-16,-8,1,28.15625,0.011596034280955791,0.00015473488019779325,0.9938725233078003,0.028447987511754036,0.08651303499937057,0.006269225385040045,-0.06585134565830231,-0.008589029312133789,14.886933326721191,0.008920314721763134,0.6684697270393372,0.003944056108593941,0.6397942304611206,0.004976258613169193,0.028675496578216553,0.9939401745796204,0.03683985769748688,1.0080000162124634,1,1587613,0,0.03726707398891449,0.0,1517611,0,0,0,0
0.7403860999911558,baseline,1603768987,1587621,392,-12,8142,-90,-13,-9,3,28.0625,0.011584623716771603,0.0004496026667766273,0.9936940670013428,-0.022521978244185448,-0.016658995300531387,-0.03171783313155174,-0.06596680730581284,-0.008141279220581055,14.886528968811035,0.02592380903661251,0.6679319143295288,0.0038285921327769756,0.6402419805526733,0.022095216438174248,0.02768993377685547,0.9937537908554077,0.03244021162390709,1.0080000162124634,1,1587623,0,0.03269961476325989,0.0,1517621,0,0,0,0
0.7506050999945728,baseline,1603780079,1587632,410,3,8137,-103,-11,-9,2,28.203125,0.011289036832749844,-0.00019964695093221962,0.9938703179359436,0.023702511563897133,-0.030074523761868477,0.022448813542723656,-0.06593572348356247,-0.007941365242004395,14.886710166931152,-0.008567427285015583,0.6702853441238403,0.00383379147388041,0.6404192447662354,-0.01240121852606535,0.02986609935760498,0.9940006136894226,0.03233843296766281,1.0080000162124634,1,1587633,0,0.032635826617479324,0.0,1517631,0,0,0,0
0.7600821999949403,baseline,1603789154,1587641,388,-1,8149,-91,-16,-8,1,28.03125,0.012285919860005379,-0.0002943789295386523,0.9939132928848267,0.022058960050344467,0.03953254967927933,-0.012553555890917778,-0.06624604761600494,-0.007555067539215088,14.886516571044922,-0.014277171343564987,0.6917970180511475,0.0035493532195687294,0.6408281922340393,-0.017826523631811142,0.050968825817108154,0.9940798878669739,0.05399635434150696,1.0080000162124634,1,1587642,0,0.05438647046685219,0.0,1517640,0,0,0,0
0.7701013999903807,baseline,1603799238,1587651,396,2,8145,-88,-10,-11,4,28.09375,0.010142077691853046,-0.00015824018919374794,0.9939665794372559,-0.031071417033672333,-0.027753643691539764,-0.07214632630348206,-0.06617395579814911,-0.007611513137817383,14.885995864868164,-0.021065864711999893,0.587831437587738,0.0036461944691836834,0.640771746635437,-0.024712059646844864,-0.052940309047698975,0.9940659403800964,0.05842398479580879,1.0080000162124634,1,1587652,0,0.058225519955158234,0.0,1517650,0,0,0,0
0.7804293999943184,baseline,1603809322,1587661,408,5,8146,-96,-15,-8,2,28.078125,0.011426490731537342,3.531981201376766e-05,0.9941660761833191,-0.006235594395548105,-0.0036638695746660233,-0.011023671366274357,-0.06602977961301804,-0.008169591426849365,14.885869979858398,0.0020355514716356993,0.6585025191307068,0.0037656198255717754,0.640213668346405,-0.0017300683539360762,0.018288850784301758,0.9942317605018616,0.018370497971773148,1.0080000162124634,1,1587662,0,0.010584615170955658,0.0,1517661,0,0,0,0
0.7901972999970894,baseline,1603819406,1587671,408,-3,8140,-99,-11,-13,2,28.1875,0.011540009640157223,-0.00023804852389730513,0.9940113425254822,0.009423410519957542,-0.010545959696173668,-0.06590065360069275,-0.0660666972398758,-0.007980942726135254,14.885736465454102,-0.012660829350352287,0.6600728034973145,0.0037096221931278706,0.6403872966766357,-0.01637045107781887,0.01968550682067871,0.9940978288650513,0.025602946057915688,1.0080000162124634,1,1587672,0,0.025859827175736427,0.0,1517670,0,0,0,0
0.8002290000003995,baseline,1603830498,1587682,384,1,8139,-78,-14,-9,2,28.0,0.010422902181744576,2.9355058359215036e-05,0.9937251806259155,-0.0034261266700923443,-0.007063595578074455,-0.020397840067744255,-0.06615765392780304,-0.008147954940795898,14.885274887084961,0.0014242593897506595,0.5938760042190552,0.0036245982628315687,0.6401896476745605,-0.002200338989496231,-0.04631364345550537,0.9936702251434326,0.046365879476070404,1.0080000162124634,1,1587683,0,0.04613141342997551,0.0,1517681,0,0,0,0
0.8104349999921396,baseline,1603839573,1587691,410,-6,8144,-95,-14,-10,3,28.203125,0.010086890310049057,-0.0001890533312689513,0.993567168712616,-0.024244289845228195,-0.010368052870035172,-0.03413265570998192,-0.06616058945655823,-0.00856006145477295,14.884805679321289,-0.01251902338117361,0.5953062176704407,0.0036389005836099386,0.6398069262504578,-0.01615792326629162,-0.04450070858001709,0.9938859939575195,0.04734333977103233,1.0089999437332153,1,1587692,0,0.04709533974528313,0.0,1517690,0,0,0,0
0.8205388999922434,baseline,1603849657,1587701,404,-7,8140,-95,-13,-10,2,28.15625,0.011256719939410686,0.0006572458660230041,0.9939387440681458,0.016430247575044632,0.014636065810918808,-0.008219330571591854,-0.0662774071097374,-0.008480370044708252,14.884449005126953,0.03411111980676651,0.6486448645591736,0.003508276306092739,0.6399097442626953,0.030602842569351196,0.008735120296478271,0.9939765930175781,0.03182509168982506,1.0089999437332153,1,1587702,0,0.03192334994673729,0.0,1517700,0,0,0,0
0.8305901999992784,baseline,1603859741,1587711,398,0,8137,-81,-18,-10,2,28.109375,0.010863900184631348,-0.0002186270576203242,0.9933269619941711,-0.004282194189727306,0.06591270118951797,-0.04411514848470688,-0.06637293845415115,-0.008271098136901855,14.884185791015625,-0.010608936659991741,0.6187069416046143,0.0034039663150906563,0.6401587128639221,-0.014012902975082397,-0.02145177125930786,0.9935333132743835,0.025623034685850143,1.0089999437332153,1,1587712,0,0.025350462645292282,0.0,1517710,0,0,0,0
0.8404676999925869,baseline,1603869825,1587721,388,-3,8152,-96,-16,-9,2,28.03125,0.011076065711677074,-0.00033054608502425253,0.9940560460090637,0.01010130625218153,0.02120705135166645,0.0033114925026893616,-0.06664032489061356,-0.008326530456542969,14.88420295715332,-0.011565134860575199,0.6452735066413879,0.003126934403553605,0.6401074528694153,-0.01469206903129816,0.005166053771972656,0.9942680597305298,0.015573856420814991,1.0089999437332153,1,1587722,0,0.01573321968317032,0.0,1517720,0,0,0,0
0.8506932999880519,baseline,1603879908,1587731,388,-7,8135,-87,-17,-9,1,28.03125,0.011293682269752026,1.205087755806744e-06,0.9934981465339661,0.03456128016114235,0.04243980720639229,-0.02759353071451187,-0.06686773896217346,-0.008015155792236328,14.883975982666016,0.01345777790993452,0.6496398448944092,0.002885371446609497,0.6404247879981995,0.010572406463325024,0.009215056896209717,0.993489682674408,0.01402472984045744,1.0080000162124634,1,1587732,0,0.014246713370084763,0.0,1517730,0,0,0,0
0.8603550999978324,baseline,1603888983,1587740,386,-1,8141,-104,-14,-5,2,28.015625,0.011673817411065102,-0.00032289818045683205,0.994202733039856,0.003263585502281785,0.014989434741437435,0.03211040794849396,-0.06702344864606857,-0.007705390453338623,14.883682250976562,-0.01860858127474785,0.6727297306060791,0.002771948464214802,0.6406778693199158,-0.021380528807640076,0.03205186128616333,0.9942713379859924,0.05148708075284958,1.0080000162124634,1,1587742,0,0.05185834690928459,0.0,1517740,0,0,0,0
0.8705305999901611,baseline,1603899068,1587751,396,1,8142,-102,-10,-9,2,28.09375,0.012728552334010601,-0.00036032136995345354,0.9939998388290405,-0.003355591557919979,-0.06554500013589859,-0.024085501208901405,-0.06712624430656433,-0.007549881935119629,14.883441925048828,-0.0207695122808218,0.7336544990539551,0.0026691588573157787,0.6408329606056213,-0.006738658994436264,0.08039641380310059,0.9938685894012451,0.08067832887172699,1.0080000162124634,1,1587752,0,0.08104220777750015,0.0,1517750,0,0,0,0
0.8802581999916583,baseline,1603909151,1587760,388,-8,8145,-97,-15,-8,1,28.140625,0.01230369508266449,0.00027501711156219244,0.9938639998435974,0.011804072186350822,0.013727536424994469,-0.027666959911584854,-0.06717196106910706,-0.00738072395324707,14.883060455322266,0.015854602679610252,0.7092657685279846,0.002623440697789192,0.6410025358200073,0.01323116198182106,0.0682632327079773,0.9939401745796204,0.06953367590904236,1.0089999437332153,1,1587761,0,0.053686078637838364,0.0,1517760,0,0,0,0
0.8903620999917621,baseline,1603919235,1587770,384,1,8147,-83,-14,-6,2,28.03125,0.010821282863616943,-0.00011981531861238182,0.9939600229263306,-0.005087142810225487,-0.006856940686702728,0.0448908656835556,-0.06716058403253555,-0.007199227809906006,14.88314437866211,-0.006906627677381039,0.6237568259239197,0.002634816337376833,0.6411840319633484,-0.009541444480419159,-0.01742720603942871,0.9940189123153687,0.019868232309818268,1.0080000162124634,1,1587771,0,0.022546760737895966,0.0,1517770,0,0,0,0
0.9006197999988217,baseline,1603930327,1587781,392,-9,8146,-86,-14,-12,2,28.0625,0.011191749945282936,0.0002610148803796619,0.9937458634376526,-0.0009326180443167686,-0.0023661302402615547,-0.08168727904558182,-0.06710188835859299,-0.007631659507751465,14.8827486038208,0.014893057756125927,0.6321322917938232,0.0026935082860291004,0.6407516002655029,0.01219954900443554,-0.008619308471679688,0.9939270615577698,0.01493725087493658,1.0089999437332153,1,1587782,0,0.014777478761970997,0.0,1517780,0,0,0,0
0.9103712999931304,baseline,1603939403,1587790,388,15,8149,-82,-13,-10,3,28.03125,0.010552472434937954,-0.00035179941914975643,0.9945093393325806,-0.012412184849381447,-0.03543877601623535,-0.052982427179813385,-0.0668531060218811,-0.007541060447692871,14.8822021484375,-0.025982625782489777,0.6042255759239197,0.002942290622740984,0.6408421993255615,-0.028924915939569473,-0.036616623401641846,0.9943320751190186,0.04666291922330856,1.0080000162124634,1,1587791,0,0.04649168998003006,0.0,1517789,0,0,0,0
0.9204379000002518,baseline,1603949487,1587800,398,-11,8145,-92,-13,-9,3,28.109375,0.011060643941164017,0.00022676413937006146,0.9941505193710327,0.004972124472260475,-0.023734310641884804,-0.008136408403515816,-0.06692620366811752,-0.00792759656906128,14.88206672668457,0.0243858490139246,0.6456767320632935,0.00286919716745615,0.6404556632041931,0.021516650915145874,0.005221068859100342,0.9942137598991394,0.022141044959425926,1.0080000162124634,1,1587801,0,0.022229919210076332,0.0,1517799,0,0,0,0
0.9300294999993639,baseline,1603959571,1587810,392,1,8140,-100,-17,-9,3,28.0625,0.012019040063023567,0.0008132829098030925,0.9940916299819946,-0.015096047893166542,0.020449519157409668,-0.016143199056386948,-0.06662864983081818,-0.008103549480438232,14.882031440734863,0.04687462002038956,0.6926991939544678,0.0031667512375861406,0.6402797102928162,0.05296885594725609,0.057426631450653076,0.9941542744636536,0.0781250149011612,1.0080000162124634,1,1587811,0,0.07848045229911804,0.0,1517809,0,0,0,0
0.9401055999915116,baseline,1603969655,1587820,408,0,8135,-94,-11,-8,2,28.1875,0.011672591790556908,-0.00019815766427200288,0.9935768246650696,-0.005797279067337513,-0.0029143616557121277,-0.03306526318192482,-0.06642129272222519,-0.007817268371582031,14.881559371948242,-0.011426995508372784,0.6730828285217285,0.0033741104416549206,0.6405659914016724,-0.010751208290457726,0.03299933671951294,0.9935606718063354,0.03470655158162117,1.0080000162124634,1,1587821,0,0.03502430394291878,0.0,1517819,0,0,0,0
0.9502914999902714,baseline,1603979739,1587830,400,-5,8135,-83,-15,-9,3,28.125,0.011122377589344978,0.00033231894485652447,0.9937962889671326,0.01380457729101181,0.013624068349599838,-0.009923757053911686,-0.06656615436077118,-0.007629275321960449,14.881591796875,0.010540147311985493,0.6333032846450806,0.0032303237821906805,0.6407519578933716,0.0073098232969641685,-0.007448673248291016,0.9938148260116577,0.010436294600367546,1.0080000162124634,1,1587831,0,0.010224856436252594,0.0,1517829,0,0,0,0
0.9602402999880724,baseline,1603988814,1587840,398,-4,8153,-97,-13,-10,4,28.109375,0.0116511769592762,2.6920868549495935e-05,0.9941354990005493,-0.015265339985489845,-0.011945607140660286,-0.05551520735025406,-0.06655962765216827,-0.00768667459487915,14.881329536437988,0.001551551278680563,0.671470582485199,0.003235770855098963,0.6406965851783752,-0.0016842195764183998,0.035910964012145996,0.9941475987434387,0.03882727026939392,1.0080000162124634,1,1587841,0,0.03914083167910576,0.0,1517839,0,0,0,0
0.9703679999947781,baseline,1603999907,1587850,396,-1,8135,-85,-16,-10,1,28.09375,0.010910388082265854,0.0001291242806473747,0.994131326675415,0.02723766304552555,0.015919964760541916,-0.03620878979563713,-0.06652361899614334,-0.008047223091125488,14.880965232849121,0.007441950496286154,0.6287842392921448,0.0032717809081077576,0.6403601765632629,0.007480825297534466,-0.019880831241607666,0.9943073391914368,0.02124170958995819,1.0080000162124634,1,1587851,0,0.02093108929693699,0.0,1517849,0,0,0,0
0.9801622999948449,baseline,1604008982,1587859,400,6,8141,-89,-14,-9,2,28.125,0.010900996625423431,-0.000298650556942448,0.9939061403274536,0.008314783684909344,-0.007419245317578316,-0.01886443793773651,-0.06666973978281021,-0.007941484451293945,14.880671501159668,-0.017216330394148827,0.6358610391616821,0.0031256608199328184,0.6404417753219604,-0.020341990515589714,-0.00458073616027832,0.9939674139022827,0.020851371809840202,1.0080000162124634,1,1587860,0,0.02081792987883091,0.0,1517859,0,0,0,0
0.9901255000004312,baseline,1604019063,1587869,414,7,8149,-88,-13,-9,1,28.234375,0.011324952356517315,-0.00017077126540243626,0.9939493536949158,0.030968351289629936,-0.037649158388376236,-0.026656579226255417,-0.06684653460979462,-0.008200466632843018,14.880146026611328,-0.007166252471506596,0.6507689356803894,0.002948864595964551,0.6401827931404114,-0.010115116834640503,0.010586142539978027,0.9940825700759888,0.014641789719462395,1.0089999437332153,1,1587870,0,0.0148778622969985,0.0,1517868,0,0,0,0
1.0005197999998927,baseline,1604030156,1587880,406,7,8142,-107,-12,-8,2,28.171875,0.012226255610585213,-0.0007789222872816026,0.9942511320114136,0.026784123852849007,-0.038284219801425934,-0.03231274336576462,-0.06729502230882645,-0.008111774921417236,14.879903793334961,-0.0448869988322258,0.6987743377685547,0.0025003759656101465,0.6402714848518372,-0.04738737642765045,0.05850285291671753,0.9943253397941589,0.0752871036529541,1.0080000162124634,1,1587881,0,0.07560136169195175,0.0,1517880,0,0,0,0
1.0105081999936374,baseline,1604039231,1587889,396,-6,8145,-72,-14,-9,2,28.234375,0.010899865068495274,0.00046082999324426055,0.9940873384475708,-0.010755715891718864,0.00034442031756043434,-0.04016149416565895,-0.06728781014680862,-0.00808870792388916,14.87951946258545,0.02656065672636032,0.6282055377960205,0.002507589990273118,0.6402945518493652,0.024053066968917847,-0.012089014053344727,0.9941472411155701,0.026920147240161896,1.0080000162124634,1,1587891,0,0.025186654180288315,0.0,1517889,0,0,0,0
1.0202732999896398,baseline,1604049315,1587899,398,-7,8148,-79,-14,-9,2,28.109375,0.009683084674179554,5.3642412240151316e-05,0.9943314790725708,0.008368836715817451,0.031076405197381973,-0.014789024367928505,-0.0672476664185524,-0.00864344835281372,14.87939453125,0.009294601157307625,0.5598317980766296,0.0025477344170212746,0.6397398114204407,0.00674686674028635,-0.07990801334381104,0.9943487048149109,0.08019233494997025,1.0089999437332153,1,1587900,0,0.07994236797094345,0.0,1517898,0,0,0,0
1.030046499989112,baseline,1604059399,1587909,396,12,8149,-79,-10,-9,4,28.09375,0.009949440136551857,-0.00039802200626581907,0.994575023651123,-0.0291685052216053,-0.04766703024506569,-0.015595456585288048,-0.06729406118392944,-0.008996009826660156,14.879399299621582,-0.01928884908556938,0.5825055241584778,0.002516417531296611,0.6392882466316223,-0.02180526591837406,-0.05678272247314453,0.9948287010192871,0.06082554906606674,1.0080000162124634,1,1587910,0,0.060660768300294876,0.0,1517908,0,0,0,0
1.040090099995723,baseline,1604069481,1587919,390,17,8139,-77,-15,-9,3,28.046875,0.01075244601815939,-0.000925830623600632,0.9939187169075012,-0.034519195556640625,0.009483210742473602,-0.0277289766818285,-0.06718496978282928,-0.009450376033782959,14.879100799560547,-0.04602145403623581,0.6141316294670105,0.0026051790919154882,0.6389398574829102,-0.04862663149833679,-0.024808228015899658,0.9939919710159302,0.05458935350179672,1.0089999437332153,1,1587920,0,0.05448316037654877,0.0,1517918,0,0,0,0
1.050078999993275,baseline,1604079565,1587929,400,-4,8129,-90,-14,-7,2,28.125,0.010730135254561901,-0.0001843998907133937,0.9939889311790466,8.391402661800385e-05,-0.021079611033201218,0.032320864498615265,-0.06710268557071686,-0.009710967540740967,14.879178047180176,-0.010629228316247463,0.6184853911399841,0.0026927138678729534,0.638621985912323,0.005115775391459465,-0.03666156530380249,0.9938742518424988,0.03701677545905113,1.0089999437332153,1,1587930,0,0.03678152710199356,0.0,1517928,0,0,0,0
1.060267599998042,baseline,1604089649,1587939,404,2,8145,-103,-12,-11,3,28.15625,0.011069195345044136,0.00048768275883048773,0.9941264390945435,-0.007449280004948378,-0.03036734089255333,-0.07020188122987747,-0.06714006513357162,-0.010237038135528564,14.879154205322266,0.004680466838181019,0.653915286064148,0.0026570698246359825,0.6381366848945618,0.0020233970135450363,0.01577860116958618,0.994193434715271,0.015907809138298035,1.0089999437332153,1,1587940,0,0.01621677540242672,0.0,1517938,0,0,0,0
1.0703769999963697,baseline,1604099733,1587949,410,9,8146,-122,-16,-9,1,28.203125,0.011310705915093422,-0.00043075205758213997,0.9940405488014221,0.004863540641963482,0.05948158726096153,-0.05338206887245178,-0.06719011813402176,-0.010019421577453613,14.878398895263672,-0.034286946058273315,0.6814135313034058,0.0025690742768347263,0.6384387612342834,-0.036856021732091904,0.042974770069122314,0.9939526319503784,0.0566144622862339,1.0080000162124634,1,1587950,0,0.05696617439389229,0.0,1517948,0,0,0,0
1.0803523999929894,baseline,1604109817,1587959,388,14,8148,-93,-11,-6,5,28.03125,0.010383850894868374,-0.0006595582235604525,0.9933695793151855,-0.024652916938066483,-0.05814378336071968,0.037757303565740585,-0.06743210554122925,-0.009856820106506348,14.878288269042969,-0.038042131811380386,0.5988999605178833,0.0023632969241589308,0.638455867767334,-0.03772224858403206,-0.0073258280754089355,0.9935523867607117,0.038427017629146576,1.0080000162124634,1,1587960,0,0.03840023651719093,0.0,1517958,0,0,0,0
1.0902874999883352,baseline,1604118892,1587968,404,21,8132,-86,-12,-12,3,28.15625,0.011766554787755013,-0.0005353976739570498,0.9930646419525146,-0.007643980905413628,-0.015105437487363815,-0.06016828864812851,-0.06747303158044815,-0.009875357151031494,14.878253936767578,-0.03089025802910328,0.6788503527641296,0.0023223659954965115,0.6385079026222229,-0.03321262449026108,0.04034245014190674,0.9931344985961914,0.045176416635513306,1.0080000162124634,1,1587970,0,0.045369360595941544,0.0,1517968,0,0,0,0
1.1001943000010215,baseline,1604128976,1587978,406,-11,8143,-92,-10,-9,2,28.171875,0.010597093030810356,0.00023867821437306702,0.9937142133712769,-0.0018437555991113186,-0.07072393596172333,-0.02460889331996441,-0.06768206506967545,-0.01011437177658081,14.877458572387695,0.013761757872998714,0.6109861731529236,0.002113333437591791,0.6382688879966736,0.011648423969745636,-0.02728271484375,0.9937707185745239,0.02966533787548542,1.0080000162124634,1,1587979,0,0.04219768941402435,0.0,1517978,0,0,0,0
1.1105526999890571,baseline,1604139058,1587989,400,3,8155,-124,-10,-6,3,28.125,0.01116290781646967,-1.2829419574700296e-05,0.9943689703941345,-0.000773807056248188,-0.07055499404668808,0.072280652821064,-0.0677865669131279,-0.010828852653503418,14.878050804138184,-0.0007392342668026686,0.6431824564933777,0.0020088308956474066,0.6374865174293518,-0.018255867063999176,0.05532151460647583,0.9945410490036011,0.0582558698952198,1.0080000162124634,1,1587990,0,0.05852019786834717,0.0,1517988,0,0,0,0
1.1206335999886505,baseline,1604150152,1587999,410,-11,8151,-98,-15,-17,1,28.203125,0.011422664858400822,0.0004821861512027681,0.9943836331367493,0.013442376628518105,-0.008825188502669334,-0.1557977944612503,-0.06783206760883331,-0.011230647563934326,14.877750396728516,0.027783270925283432,0.6581379771232605,0.0019280158448964357,0.6371831297874451,0.02033848874270916,0.046127378940582275,0.9942222237586975,0.050412192940711975,1.0069999694824219,1,1588000,0,0.05074198171496391,0.0,1517998,0,0,0,0
1.1302412999939406,baseline,1604159226,1588008,386,-8,8129,-41,-13,-9,4,28.015625,0.01158144325017929,0.00021076473058201373,0.9933383464813232,-0.021479079499840736,0.019909922033548355,-0.07335837930440903,-0.06785479933023453,-0.010235249996185303,14.87606143951416,0.010230505838990211,0.5945309996604919,0.0019406038336455822,0.6381480097770691,0.008289901539683342,-0.04361701011657715,0.9932286739349365,0.04439781606197357,1.0089999437332153,1,1588009,0,0.04412822425365448,0.0,1518007,0,0,0,0
1.140243299989379,baseline,1604169310,1588018,398,-20,8145,-98,-13,-2,4,28.109375,0.011231807991862297,0.0005741801578551531,0.9934566617012024,-0.012098010629415512,-0.01025126688182354,0.1894083172082901,-0.06783990561962128,-0.01047748327255249,14.877150535583496,0.03680209442973137,0.6456191539764404,0.0019554912578314543,0.6379057765007019,0.034846603870391846,0.007713377475738525,0.9933380484580994,0.03569008409976959,1.0089999437332153,1,1588019,0,0.03581185266375542,0.0,1518017,0,0,0,0
1.150285099996836,baseline,1604179394,1588028,412,-2,8146,-142,-14,-18,3,28.21875,0.01242006290704012,0.0002968469634652138,0.9935804605484009,-0.011364990845322609,-0.024713849648833275,-0.17181718349456787,-0.06764013320207596,-0.011152386665344238,14.877241134643555,0.013284657150506973,0.767695963382721,0.002172604901716113,0.6372308731079102,0.011112052015960217,0.1304650902748108,0.993816614151001,0.13093745708465576,1.0089999437332153,1,1588029,0,0.13137486577033997,0.0,1518027,0,0,0,0
1.1602948999934597,baseline,1604189478,1588038,420,0,8146,-90,-15,-11,5,28.28125,0.010144272819161415,0.00017208934877999127,0.9944264888763428,-0.04414520412683487,0.04285163804888725,-0.15204265713691711,-0.06745758652687073,-0.010824263095855713,14.875242233276367,0.003881085431203246,0.6245534420013428,0.002394231967628002,0.6375532746315002,0.001486853463575244,-0.01299983263015747,0.9944015145301819,0.013084585778415203,1.0080000162124634,1,1588039,0,0.012797283008694649,0.0,1518037,0,0,0,0
1.1703785999998217,baseline,1604199562,1588048,410,2,8135,-75,-13,-3,1,28.203125,0.01099880039691925,-0.0002031165931839496,0.9939350485801697,0.01627226546406746,-0.045900508761405945,0.14674493670463562,-0.067257359623909,-0.011084198951721191,14.875921249389648,-0.00762178236618638,0.6296022534370422,0.0025202373508363962,0.6372775435447693,-0.01014201994985342,-0.007675290107727051,0.9937179088592529,0.012718908488750458,1.0080000162124634,1,1588049,0,0.012569152750074863,0.0,1518047,0,0,0,0
1.1803552999917883,baseline,1604209646,1588058,412,10,8140,-95,-15,-12,2,28.21875,0.012687298469245434,-0.0006937303114682436,0.993530809879303,-0.002774375956505537,0.059637244790792465,-0.07010456919670105,-0.06734735518693924,-0.010639488697052002,14.876521110534668,-0.04036051034927368,0.7127179503440857,0.0024235546588897705,0.6378141045570374,-0.04278406500816345,0.07490384578704834,0.9936078786849976,0.08626159280538559,1.0080000162124634,1,1588059,0,0.08665944635868073,0.0,1518057,0,0,0,0
1.1901848999987124,baseline,1604219730,1588068,404,4,8149,-99,-12,-7,2,28.15625,0.010733344592154026,0.00033774657640606165,0.9942577481269836,-0.011807810515165329,-0.052648454904556274,-0.07068631052970886,-0.06719627976417542,-0.010832071304321289,14.875130653381348,0.01946321688592434,0.6185030341148376,0.002599117113277316,0.6375511884689331,0.016864100471138954,-0.02122938632965088,0.9944515824317932,0.021389758214354515,1.0080000162124634,1,1588069,0,0.02114957571029663,0.0,1518067,0,0,0,0
1.2004944999935105,baseline,1604229814,1588078,398,0,8144,-129,-12,-3,4,28.109375,0.011459419503808022,0.0001230613561347127,0.9943926334381104,-0.020352071151137352,-0.05642334371805191,0.13118842244148254,-0.06716138869524002,-0.011661708354949951,14.875752449035645,0.002619716804474592,0.7095204591751099,0.0026659765280783176,0.6367025971412659,-4.625972360372543e-05,0.072817862033844,0.9943901896476746,0.07281787693500519,1.0080000162124634,1,1588079,0,0.07315576821565628,0.0,1518077,0,0,0,0
1.210373800000525,baseline,1604239898,1588088,392,0,8141,-73,-15,-12,1,28.0625,0.011349991895258427,-1.9389884982956573e-05,0.9939292073249817,0.026344934478402138,0.01353013701736927,-0.12023158371448517,-0.06721708178520203,-0.01130598783493042,14.875655174255371,-0.0011177441338077188,0.6542501449584961,0.0025783213786780834,0.637077271938324,-0.0036960653960704803,0.008210539817810059,0.9940258264541626,0.008807689882814884,1.0080000162124634,1,1588089,0,0.009133829735219479,0.0,1518087,0,0,0,0
1.2202106999902753,baseline,1604248973,1588097,408,13,8148,-88,-12,-9,1,28.140625,0.01123802550137043,-0.00024622195633128285,0.9942253828048706,0.03578066825866699,-0.020084884017705917,-0.03727545589208603,-0.06734967976808548,-0.010777771472930908,14.874676704406738,-0.014189418405294418,0.6476036906242371,0.002445717342197895,0.6376054883003235,-0.01663513481616974,0.009998202323913574,0.9942889213562012,0.01940854825079441,1.0089999437332153,1,1588099,0,0.016456294804811478,0.0,1518097,0,0,0,0
1.2302004999946803,baseline,1604259054,1588107,394,-2,8150,-118,-9,-6,2,28.078125,0.011357313953340054,7.136371277738363e-05,0.9944078922271729,-0.0008399682119488716,-0.10829328000545502,0.06466260552406311,-0.06748244911432266,-0.011830449104309082,14.87519359588623,0.004111833404749632,0.678851306438446,0.0023129500914365053,0.6365528106689453,0.0017988833133131266,0.04229849576950073,0.9944776892662048,0.042336732149124146,1.0089999437332153,1,1588108,0,0.04997691139578819,0.0,1518107,0,0,0,0
1.2401358999923104,baseline,1604269138,1588117,392,-1,8133,-117,-14,-12,2,28.0625,0.012996465899050236,0.0003714641206897795,0.9938739538192749,-0.027113046497106552,-0.014472185634076595,-0.0990794375538826,-0.06726912409067154,-0.012004852294921875,14.874860763549805,0.01802056096494198,0.7655088305473328,0.002526276744902134,0.6363784074783325,0.015494284220039845,0.12913042306900024,0.9938307404518127,0.13005667924880981,1.0080000162124634,1,1588118,0,0.13050147891044617,0.0,1518116,0,0,0,0
1.2506347999878926,baseline,1604280230,1588128,400,0,8151,-99,-14,-9,2,28.125,0.011128679849207401,0.00022734137019142509,0.9942551255226135,-0.011646299622952938,-0.010625144466757774,-0.0290178544819355,-0.06705106049776077,-0.011502742767333984,14.874154090881348,0.013100964017212391,0.6412838101387024,0.0027443370781838894,0.6369031071662903,0.011605998501181602,0.012015998363494873,0.9943007826805115,0.016705790534615517,1.0089999437332153,1,1588129,0,0.01697046123445034,0.0,1518127,0,0,0,0
1.2604004999884637,baseline,1604289306,1588137,400,-14,8130,-94,-14,-8,1,28.125,0.011728988960385323,0.0006004932802170515,0.9936013221740723,0.030234992504119873,-0.00041320081800222397,0.03712009638547897,-0.0670652836561203,-0.01140528917312622,14.874679565429688,0.03462729603052139,0.6763177514076233,0.002730115782469511,0.6369779706001282,0.031897179782390594,0.03933978080749512,0.9936707019805908,0.050646305084228516,1.0080000162124634,1,1588138,0,0.05621270090341568,0.0,1518137,0,0,0,0
1.270099699991988,baseline,1604299390,1588147,384,0,8137,-81,-15,-12,2,28.0,0.010669759474694729,7.52092819311656e-05,0.9938114285469055,0.0022043357603251934,0.03706565871834755,-0.06714384257793427,-0.0669625774025917,-0.010897994041442871,14.874590873718262,0.009229244664311409,0.6224774718284607,0.002840339206159115,0.6375157833099365,0.006388905458152294,-0.01503831148147583,0.9938642382621765,0.01633918285369873,1.0080000162124634,1,1588148,0,0.01603972166776657,0.0,1518146,0,0,0,0
1.2802610999933677,baseline,1604309474,1588157,384,-15,8147,-86,-13,-9,4,28.0,0.010358009487390518,0.00041395373409613967,0.9941354990005493,-0.010468782857060432,-0.0356433130800724,-0.058236297219991684,-0.06680338829755783,-0.011118948459625244,14.873698234558105,0.047970037907361984,0.6127445697784424,0.003038171213120222,0.6372103095054626,0.044931866228580475,-0.024465739727020264,0.9941741824150085,0.05116097256541252,1.0080000162124634,1,1588158,0,0.05111058056354523,0.0,1518156,0,0,0,0
1.2902877999877091,baseline,1604319557,1588167,386,3,8151,-87,-14,-6,2,28.015625,0.011434554122388363,0.0007763791945762932,0.994190514087677,0.019876806065440178,-0.02766762301325798,0.02735104411840439,-0.06662703305482864,-0.011618852615356445,14.873575210571289,0.024256693199276924,0.6626303195953369,0.0031830163206905127,0.6367310881614685,0.021073676645755768,0.025899231433868408,0.994307279586792,0.03338966891169548,1.0089999437332153,1,1588168,0,0.03363442420959473,0.0,1518166,0,0,0,0
1.30012529999658,baseline,1604329641,1588177,392,-3,8141,-86,-16,-10,3,28.0625,0.012143966741859913,-0.0003563298378139734,0.9941995143890381,-0.0024887612089514732,0.011973829939961433,-0.03161093220114708,-0.0667061060667038,-0.011401832103729248,14.87364387512207,-0.020535308867692947,0.699822723865509,0.003089295234531164,0.6369814276695251,-0.012559955939650536,0.0310666561126709,0.9941803216934204,0.033509545028209686,1.0089999437332153,1,1588178,0,0.03387126326560974,0.0,1518176,0,0,0,0
1.3102553999924567,baseline,1604339725,1588187,406,3,8140,-94,-13,-9,1,28.171875,0.01137979794293642,-0.0005908982711844146,0.994422197341919,0.030441051349043846,-0.011667164042592049,-0.018626267090439796,-0.0670110210776329,-0.011242508888244629,14.873443603515625,-0.03404587507247925,0.6556428670883179,0.002748330822214484,0.6371192932128906,-0.023586630821228027,0.008252859115600586,0.9944601058959961,0.024988774210214615,1.0089999437332153,1,1588188,0,0.02513430081307888,0.0,1518186,0,0,0,0
1.3205057999875862,baseline,1604349809,1588197,402,-5,8135,-97,-17,-8,0,28.140625,0.011597240343689919,0.0001229590125149116,0.9940584897994995,0.04695780575275421,0.05333466827869415,-0.015548260882496834,-0.06714354455471039,-0.011516571044921875,14.873270988464355,0.007079889066517353,0.6919248700141907,0.002608724869787693,0.636943519115448,0.00447116419672966,0.054981350898742676,0.994008481502533,0.05516285076737404,1.0089999437332153,1,1588198,0,0.05558054521679878,0.0,1518196,0,0,0,0
1.3300912999984575,baseline,1604358885,1588206,394,-1,8147,-86,-16,-9,2,28.15625,0.010776697658002377,4.514277679845691e-05,0.9946489334106445,0.002433419693261385,0.01601981744170189,-0.018190128728747368,-0.06735491752624512,-0.0112992525100708,14.87317180633545,0.0026004055980592966,0.6207568645477295,0.002440482145175338,0.6370840072631836,0.00015992345288395882,-0.0163271427154541,0.9947072863578796,0.016327926889061928,1.0080000162124634,1,1588208,0,0.008637987077236176,0.0,1518206,0,0,0,0
1.340272499990533,baseline,1604368969,1588216,394,8,8142,-75,-13,-7,3,27.90625,0.010597437620162964,-0.00035605730954557657,0.9937263131141663,0.013592306524515152,0.03427310660481453,0.03228011727333069,-0.06773039698600769,-0.011001288890838623,14.873363494873047,-0.020529374480247498,0.6109986305236816,0.00206500175409019,0.6373819708824158,-0.022594375535845757,-0.02638334035873413,0.9937828779220581,0.03473595157265663,1.0080000162124634,1,1588218,0,0.0387672558426857,0.0,1518216,0,0,0,0
1.3502735999936704,baseline,1604379050,1588226,404,8,8132,-95,-13,-8,4,28.265625,0.01142891589552164,-0.00021636414749082178,0.9936428666114807,0.00045496225357055664,-0.008026866242289543,-0.009839116595685482,-0.06808638572692871,-0.01077646017074585,14.873061180114746,-0.012476064264774323,0.6589890122413635,0.0017090163892135024,0.6376067996025085,-0.01418508030474186,0.02138221263885498,0.993708610534668,0.025659609586000443,1.0080000162124634,1,1588228,0,0.007873618975281715,0.0,1518226,0,0,0,0
1.3603130999981659,baseline,1604389134,1588236,396,4,8152,-107,-13,-10,1,28.15625,0.011505890637636185,-0.0003997039748355746,0.9943040013313293,0.03645472973585129,-0.02216198295354843,-0.05619896203279495,-0.06829025596380234,-0.011111855506896973,14.872520446777344,-0.023032542318105698,0.6629858613014221,0.0015051440568640828,0.6372714042663574,-0.02453768625855446,0.025714457035064697,0.9943706393241882,0.035543374717235565,1.0080000162124634,1,1588238,0,0.0480709969997406,0.0,1518236,0,0,0,0
1.3703486000013072,baseline,1604399217,1588246,404,-5,8160,-111,-11,-9,0,28.21875,0.01194166112691164,1.4319131878437474e-05,0.9945906400680542,0.04809422045946121,-0.0593114048242569,-0.013990141451358795,-0.06860844045877457,-0.011475920677185059,14.872391700744629,0.0008248879457823932,0.6878949999809265,0.0011869616573676467,0.6369073390960693,-0.0003620737115852535,0.05098766088485718,0.994662344455719,0.05098894611001015,1.0089999437332153,1,1588247,0,0.05385443940758705,0.0,1518246,0,0,0,0
1.380354900000384,baseline,1604409301,1588256,400,1,8138,-105,-15,-10,2,28.125,0.01170155219733715,0.0001021354109980166,0.9938538074493408,0.0007735863327980042,0.036803171038627625,-0.024402864277362823,-0.0686776340007782,-0.010976910591125488,14.872118949890137,-0.00397475715726614,0.6903453469276428,0.0011177686974406242,0.6374063491821289,-0.005092525854706764,0.052938997745513916,0.9939259886741638,0.05318337306380272,1.0089999437332153,1,1588257,0,0.053590815514326096,0.0,1518255,0,0,0,0
1.3905093999928795,baseline,1604419385,1588266,400,7,8142,-77,-11,-11,1,28.125,0.011308249086141586,-0.00010318366548744962,0.9936423897743225,0.027549849823117256,-0.046118829399347305,-0.03220958635210991,-0.06871648877859116,-0.010709166526794434,14.871994018554688,-0.005949815269559622,0.6520323157310486,0.001078912289813161,0.63767409324646,-0.007028727792203426,0.014358222484588623,0.9937067627906799,0.01598629355430603,1.0089999437332153,1,1588267,0,0.016254227608442307,0.0,1518266,0,0,0,0
1.4001203999941936,baseline,1604429469,1588276,398,3,8142,-92,-11,-9,4,28.109375,0.012264403514564037,-0.00033787646680139005,0.9941132664680481,-0.011888692155480385,-0.06624066829681396,-0.008065272122621536,-0.06879598647356033,-0.010578513145446777,14.871853828430176,-0.011920933611690998,0.7062551975250244,0.0010177198564633727,0.637787401676178,-0.012938653118908405,0.06846779584884644,0.9942512512207031,0.0696796104311943,1.0089999437332153,1,1588277,0,0.07000890374183655,0.0,1518275,0,0,0,0
1.410128799994709,baseline,1604439548,1588286,410,-6,8135,-107,-13,-9,3,28.1875,0.012318313121795654,6.241194205358624e-05,0.9938952922821045,-0.01432873122394085,-0.0013963696546852589,-0.03143758699297905,-0.0685945525765419,-0.0100632905960083,14.871527671813965,0.003597905160859227,0.7100861072540283,0.0012008498888462782,0.6383199691772461,0.002397055272012949,0.07176613807678223,0.9939716458320618,0.0718061625957489,1.0089999437332153,1,1588287,0,0.06361238658428192,0.0,1518286,0,0,0,0
1.4203310999873793,baseline,1604449631,1588296,392,5,8153,-112,-12,-9,3,28.0625,0.01211604755371809,-0.0005207937210798264,0.9943621754646301,-0.002171682193875313,-0.07597747445106506,0.0019843298941850662,-0.0686596930027008,-0.010371387004852295,14.871583938598633,-0.02635893225669861,0.7032395005226135,0.0011197755811735988,0.6379761099815369,-0.02747870795428753,0.06526339054107666,0.9946537613868713,0.07081235945224762,1.0080000162124634,1,1588297,0,0.071116603910923,0.0,1518295,0,0,0,0
1.4304167999944184,baseline,1604459714,1588306,396,-4,8143,-97,-18,-9,2,28.09375,0.012826206162571907,-0.0003169574192725122,0.9947100877761841,-0.012387092225253582,0.05634374916553497,-0.05041918903589249,-0.068616583943367,-0.010082006454467773,14.871363639831543,-0.010902737267315388,0.7254307866096497,0.0011665933998301625,0.63840651512146,-0.012069330550730228,0.0870242714881897,0.9946027398109436,0.08785722404718399,1.0080000162124634,1,1588307,0,0.08832736313343048,0.0,1518305,0,0,0,0
1.4400786999904085,baseline,1604468790,1588315,396,-9,8142,-105,-16,-11,3,28.03125,0.012549763545393944,-0.00016607195721007884,0.9940884113311768,-0.012324460782110691,0.04398009553551674,-0.07035531103610992,-0.06875394284725189,-0.009464740753173828,14.870926856994629,-0.009571806527674198,0.7232860922813416,0.0010414555436000228,0.6389185190200806,-0.010613261722028255,0.08436757326126099,0.9941676259040833,0.08503251522779465,1.0080000162124634,1,1588317,0,0.08224791288375854,0.0,1518315,0,0,0,0
1.4504260999965481,baseline,1604479882,1588326,384,-11,8135,-98,-15,-9,1,28.0,0.012459669262170792,0.0006592246354557574,0.994009256362915,0.02986859157681465,0.02961292862892151,-0.01906564086675644,-0.06872554123401642,-0.008738338947296143,14.870535850524902,0.037559621036052704,0.6992539763450623,0.0010644240537658334,0.6396978497505188,0.03649519756436348,0.05955612659454346,0.9938719868659973,0.06984863430261612,1.0080000162124634,1,1588327,0,0.07020054757595062,0.0,1518325,0,0,0,0
1.4603082999965409,baseline,1604488958,1588335,400,1,8136,-96,-14,-9,2,28.171875,0.011623913422226906,-3.734916390385479e-05,0.993754506111145,-0.004746513441205025,-0.005125680007040501,-0.045929402112960815,-0.06860537827014923,-0.00877445936203003,14.870112419128418,-0.0021533984690904617,0.6701562404632568,0.001190022798255086,0.6396088004112244,-0.0033434212673455477,0.03054744005203247,0.993822455406189,0.030729865655303,1.0080000162124634,1,1588337,0,0.017565757036209106,0.0,1518335,0,0,0,0
1.4702951999934157,baseline,1604499039,1588345,408,11,8142,-100,-12,-10,3,28.09375,0.01169695146381855,-0.00014436936180572957,0.994348406791687,-0.021197069436311722,-3.370828926563263e-05,-0.04037661850452423,-0.06836234033107758,-0.008675456047058105,14.869562149047852,-0.008318769745528698,0.6739640235900879,0.001433058176189661,0.6397078037261963,-0.009751828387379646,0.0342562198638916,0.9944172501564026,0.035617224872112274,1.0089999437332153,1,1588347,0,0.03268738090991974,0.0,1518345,0,0,0,0
1.4801150999992387,baseline,1604509124,1588355,392,-4,8137,-103,-11,-10,3,28.0625,0.011401555500924587,0.000179081573151052,0.9942519664764404,-0.014022636227309704,-0.06637589633464813,-0.028225239366292953,-0.06829080730676651,-0.008936941623687744,14.869280815124512,0.014263792894780636,0.6745132803916931,0.0015045914333313704,0.6394463181495667,0.012759201228618622,0.035066962242126465,0.994167685508728,0.03731606900691986,1.0080000162124634,1,1588356,0,0.037590205669403076,0.0,1518354,0,0,0,0
1.490148599987151,baseline,1604519207,1588365,404,10,8138,-97,-13,-11,3,28.15625,0.012151016853749752,-0.0002270932891406119,0.9940277338027954,-0.020128559321165085,-0.01739734783768654,-0.0438566729426384,-0.06833416223526001,-0.009049773216247559,14.86929988861084,-0.0132447499781847,0.6896650791168213,0.0014612340601161122,0.6393334865570068,-0.01470598392188549,0.05033159255981445,0.9941564202308655,0.05243600904941559,1.0089999437332153,1,1588366,0,0.05274128541350365,0.0,1518364,0,0,0,0
1.5003160999913234,baseline,1604529291,1588376,404,0,8142,-79,-15,-11,1,28.15625,0.011283007450401783,-0.00010983182437485084,0.9941591024398804,-0.00011857040226459503,0.031084757298231125,-0.08199556916952133,-0.06815995275974274,-0.009055733680725098,14.868619918823242,-0.00632987217977643,0.6502389311790466,0.0016354500548914075,0.6393275260925293,-0.007965322583913803,0.01045238971710205,0.9941620230674744,0.01630956493318081,1.0080000162124634,1,1588377,0,0.016548756510019302,0.0,1518375,0,0,0,0
1.510342599998694,baseline,1604540383,1588386,398,0,8135,-97,-12,-8,2,28.109375,0.012300802394747734,-9.922478056978434e-05,0.9937017560005188,0.008104479871690273,-0.025662358850240707,-0.021919747814536095,-0.06833226978778839,-0.008690237998962402,14.868080139160156,-0.0057211946696043015,0.7106091380119324,0.001437585218809545,0.6397041082382202,-0.011833172291517258,0.07090502977371216,0.9937509894371033,0.07188565284013748,1.0089999437332153,1,1588387,0,0.07225461304187775,0.0,1518385,0,0,0,0
1.5202024999889545,baseline,1604549459,1588395,402,14,8148,-113,-13,-13,3,28.140625,0.012002074159681797,-0.0003966174554079771,0.9940906763076782,-0.02158774808049202,-0.010076839476823807,-0.08165907859802246,-0.06836904585361481,-0.008656620979309082,14.867714881896973,-0.020348960533738136,0.710297703742981,0.0014252375112846494,0.6397583484649658,-0.02177419885993004,0.07053935527801514,0.9942138195037842,0.07382354885339737,1.0080000162124634,1,1588396,0,0.07419899106025696,0.0,1518394,0,0,0,0
1.53030569999828,baseline,1604559543,1588405,398,-1,8146,-100,-13,-10,1,28.109375,0.010843089781701565,-0.00035005155950784683,0.9942058324813843,0.008942032232880592,-0.004430016502737999,-0.03074975125491619,-0.06849607080221176,-0.008460283279418945,14.867440223693848,-0.02255583368241787,0.6340703964233398,0.001287811785005033,0.6398993730545044,-0.02384364604949951,-0.005828976631164551,0.9941209554672241,0.024545803666114807,1.0080000162124634,1,1588406,0,0.024504827335476875,0.0,1518404,0,0,0,0
1.5404238999908557,baseline,1604569627,1588415,388,0,8140,-120,-11,-10,1,28.03125,0.012285665608942509,8.986668399302289e-05,0.9939113855361938,0.024679120630025864,-0.07684507966041565,-0.007169507443904877,-0.06856880336999893,-0.008794546127319336,14.867472648620605,-0.002337534911930561,0.7253440618515015,0.0012042971793562174,0.6395421028137207,-0.0035418320912867785,0.08580195903778076,0.9939693212509155,0.0858750268816948,1.0080000162124634,1,1588416,0,0.08619595319032669,0.0,1518414,0,0,0,0
1.5504557999956887,baseline,1604579709,1588425,410,10,8142,-93,-12,-11,2,28.203125,0.012864748947322369,-0.000264895788859576,0.9942479729652405,0.014029374346137047,-0.04966949298977852,-0.04752274602651596,-0.06881601363420486,-0.008767962455749512,14.86716365814209,-0.00726684182882309,0.7264958024024963,0.000971736095380038,0.6396183371543884,-0.008238578215241432,0.08687746524810791,0.994175374507904,0.08726722002029419,1.0080000162124634,1,1588426,0,0.08763733506202698,0.0,1518424,0,0,0,0
1.560466399998404,baseline,1604589793,1588435,404,2,8146,-93,-12,-9,4,28.15625,0.011873343959450722,-0.00019354616233613342,0.9938973784446716,-0.003512747585773468,-0.021008607000112534,0.0035161757841706276,-0.06875105947256088,-0.008355677127838135,14.866859436035156,-0.011618239805102348,0.6851488947868347,0.0010675115045160055,0.6400186419487,-0.012685751542448997,0.045130252838134766,0.9941232204437256,0.04687929153442383,1.0080000162124634,1,1588436,0,0.04719429463148117,0.0,1518434,0,0,0,0
1.5703065999987302,baseline,1604598869,1588445,400,10,8143,-72,-17,-9,1,28.125,0.011943383142352104,0.00014269229723140597,0.9937415719032288,0.015658270567655563,0.06598759442567825,-0.012455139309167862,-0.06856686621904373,-0.007941365242004395,14.866719245910645,0.008227155543863773,0.6885819435119629,0.001228532986715436,0.64044189453125,0.006998622789978981,0.020264923572540283,0.9939484000205994,0.02176700532436371,1.0080000162124634,1,1588446,0,0.022117476910352707,0.0,1518444,0,0,0,0
1.5805379999947036,baseline,1604609960,1588455,412,-11,8153,-74,-13,-9,2,28.21875,0.011364946141839027,0.0008705146610736847,0.994206964969635,-0.0018411087803542614,-0.011522060260176659,-0.06327136605978012,-0.06852825731039047,-0.007844626903533936,14.86598014831543,0.050167426466941833,0.6358820199966431,0.0012965458445250988,0.6405314207077026,0.0431479811668396,-0.00464940071105957,0.9942193031311035,0.043397754430770874,1.0089999437332153,1,1588456,0,0.0434209480881691,0.0,1518454,0,0,0,0
1.5901844999898458,baseline,1604619035,1588464,412,-3,8145,-84,-16,-8,3,28.21875,0.01096530631184578,0.00042989422217942774,0.9939228892326355,-0.010258348658680916,0.033214278519153595,0.01223108358681202,-0.06821249425411224,-0.008017361164093018,14.865874290466309,0.029778121039271355,0.63447105884552,0.001582905650138855,0.6403658986091614,0.0281952153891325,-0.005894839763641357,0.9940378665924072,0.028804849833250046,1.0080000162124634,1,1588465,0,0.02877799980342388,0.0,1518464,0,0,0,0
1.6002684999984922,baseline,1604629119,1588474,396,10,8137,-102,-15,-9,5,28.09375,0.011764051392674446,-4.3404066673247144e-05,0.9937790036201477,-0.054093047976493835,-0.002008996903896332,-0.018229153007268906,-0.06794266402721405,-0.008009672164916992,14.865796089172363,-0.002502437448129058,0.6782181859016418,0.0018527362262830138,0.6403735876083374,-0.00435517355799675,0.03784459829330444,0.9938486218452454,0.03809437155723572,1.0080000162124634,1,1588475,0,0.04666128009557724,0.0,1518474,0,0,0,0
1.6103306000004523,baseline,1604640211,1588485,384,-4,8154,-109,-15,-8,1,28.0,0.012333112768828869,0.000828181451652199,0.9943021535873413,0.017104219645261765,0.02904854156076908,-0.019065458327531815,-0.06776443123817444,-0.007910430431365967,14.86544418334961,0.04349551722407341,0.7060577869415283,0.0020263264887034893,0.6405283212661743,0.04146919026970863,0.065529465675354,0.9945071935653687,0.07754872739315033,1.0080000162124634,1,1588486,0,0.07790523022413254,0.0,1518484,0,0,0,0
1.620337499989546,baseline,1604649286,1588494,404,14,8139,-113,-11,-9,2,28.15625,0.011754907667636871,-0.00018761318642646074,0.9943339228630066,0.015018606558442116,-0.06840663403272629,-0.013501510955393314,-0.06786035001277924,-0.008175075054168701,14.865200996398926,-0.024714356288313866,0.6881367564201355,0.0019350514048710465,0.6402081847190857,-0.026649408042430878,0.047928571701049805,0.9944057464599609,0.05483920872211456,1.0080000162124634,1,1588495,0,0.05512114614248276,0.0,1518493,0,0,0,0
1.630704399998649,baseline,1604659370,1588504,404,1,8142,-120,-10,-12,2,28.109375,0.01221709605306387,-6.115331780165434e-05,0.9940005540847778,-0.009026477113366127,-0.05910693109035492,-0.05958808213472366,-0.06777186691761017,-0.008487045764923096,14.865155220031738,-0.0035249749198555946,0.7041774988174438,0.002023532288148999,0.6398962140083313,-0.00554850697517395,0.06428128480911255,0.9940756559371948,0.06452029943466187,1.0089999437332153,1,1588506,0,0.07717469334602356,0.0,1518504,0,0,0,0
1.6401526999979978,baseline,1604669454,1588514,412,-13,8142,-115,-15,-11,1,28.21875,0.011478333733975887,0.0006710635498166084,0.9935625791549683,0.01493258960545063,0.020080238580703735,-0.030148323625326157,-0.06775043904781342,-0.008474171161651611,14.86497974395752,0.03814240172505379,0.6908714175224304,0.002049035159870982,0.6399408578872681,0.03609336540102959,0.050930559635162354,0.9936493039131165,0.06242317706346512,1.0080000162124634,1,1588515,0,0.06274492293596268,0.0,1518513,0,0,0,0
1.6502675999945495,baseline,1604679538,1588524,412,-4,8135,-93,-15,-10,1,28.21875,0.010290045291185379,0.0007475028978660703,0.9938589930534363,0.04551532492041588,0.0020676758140325546,-0.030460389330983162,-0.06785184144973755,-0.008325040340423584,14.864718437194824,0.05524325743317604,0.626465380191803,0.0019565795082598925,0.640076220035553,0.053286679089069366,-0.01361083984375,0.9937312006950378,0.05499750375747681,1.0080000162124634,1,1588525,0,0.054962195456027985,0.0,1518523,0,0,0,0
1.6602654999878723,baseline,1604689622,1588534,416,4,8154,-82,-10,-13,4,28.25,0.010372829623520374,0.00021703240054193884,0.9948351979255676,-0.01690727099776268,-0.08436998724937439,-0.07826951146125793,-0.06764177978038788,-0.008191704750061035,14.864498138427734,0.0127473846077919,0.6163735389709473,0.002175879431888461,0.6400744318962097,0.010571504943072796,-0.02370089292526245,0.9948794841766357,0.025951668620109558,1.0080000162124634,1,1588535,0,0.025799978524446487,0.0,1518533,0,0,0,0
1.6701673999923514,baseline,1604698696,1588544,400,12,8149,-86,-9,-7,5,28.125,0.010957550257444382,-0.00012574890570249408,0.9949150085449219,-0.03941608592867851,-0.1000395268201828,0.007760604843497276,-0.0675097331404686,-0.008883059024810791,14.86400318145752,-0.007241705432534218,0.6310046911239624,0.0022856697905808687,0.6395002007484436,-0.027361227199435234,-0.004792511463165283,0.9950276017189026,0.0277777761220932,1.0089999437332153,1,1588545,0,0.027733705937862396,0.0,1518543,0,0,0,0
1.68044069998723,baseline,1604709788,1588554,398,3,8141,-72,-11,-12,4,28.109375,0.011518112383782864,-0.00042021938133984804,0.9946255087852478,-0.025784987956285477,-0.0736372172832489,-0.0383201539516449,-0.06742739677429199,-0.00926351547241211,14.864202499389648,-0.03152948245406151,0.6431934833526611,0.0023843711242079735,0.6390650868415833,-0.033913854509592056,0.004128396511077881,0.9943984746932983,0.03416420891880989,1.0089999437332153,1,1588555,0,0.03419984132051468,0.0,1518553,0,0,0,0
1.6902190999971936,baseline,1604718863,1588563,424,-10,8161,-90,-13,-9,3,28.0625,0.011677206493914127,0.00037820677971467376,0.9951062202453613,0.0005296189337968826,-0.00440733227878809,-0.03101484477519989,-0.06718330830335617,-0.00943821668624878,14.863492012023926,0.021776219829916954,0.6723141074180603,0.002612092299386859,0.6389450430870056,0.019164128229022026,0.03336906433105469,0.9951748251914978,0.038480620831251144,1.0089999437332153,1,1588565,0,0.00890932697802782,0.0,1518563,0,0,0,0
1.7002081999962684,baseline,1604728947,1588573,394,-2,8136,-99,-14,-5,4,28.0625,0.01094902865588665,0.00014793762238696218,0.993898868560791,-0.028480060398578644,0.023610088974237442,0.04742106795310974,-0.0671851634979248,-0.009295642375946045,14.863533020019531,0.008528233505785465,0.6311585903167725,0.002610232913866639,0.6390876173973083,0.00591800082474947,-0.007929027080535889,0.9939591884613037,0.009894048795104027,1.0089999437332153,1,1588575,0,0.009641592390835285,0.0,1518573,0,0,0,0
1.71056329998828,baseline,1604740039,1588584,390,-12,8152,-101,-16,-8,1,27.9375,0.011594611220061779,0.00019833649275824428,0.9942474365234375,0.006910569965839386,0.03636130690574646,-0.009167587384581566,-0.06718247383832932,-0.008977890014648438,14.86364459991455,0.01142959389835596,0.6681357026100159,0.002612926298752427,0.639405369758606,0.008816667832434177,0.028730332851409912,0.9943150281906128,0.03005271404981613,1.0080000162124634,1,1588585,0,0.030417975038290024,0.0,1518584,0,0,0,0
1.7206009999936214,baseline,1604750122,1588594,416,3,8146,-86,-12,-8,2,28.25,0.011263402178883553,0.0006645050598308444,0.9940372705459595,0.00808731559664011,-0.00326676107943058,-0.010838696733117104,-0.06702467054128647,-0.008692562580108643,14.863348960876465,0.03830171376466751,0.6491886377334595,0.0027913220692425966,0.6396859288215637,0.03836482763290405,0.009228765964508057,0.9940596222877502,0.0394592210650444,1.0089999437332153,1,1588595,0,0.039575234055519104,0.0,1518593,0,0,0,0
1.730072399994242,baseline,1604759197,1588603,398,2,8146,-89,-11,-7,1,28.109375,0.011539734899997711,1.5776564396219328e-05,0.9939080476760864,0.014125004410743713,-0.06606821715831757,0.030023375526070595,-0.06695978343486786,-0.008938789367675781,14.863478660583496,0.0007652301574125886,0.6634907126426697,0.002835612976923585,0.6394444704055786,-0.0020703827030956745,0.024046242237091064,0.9939728379249573,0.024135207757353783,1.0089999437332153,1,1588604,0,0.02441312000155449,0.0,1518602,0,0,0,0
1.7401781999942614,baseline,1604769280,1588613,410,-6,8130,-117,-15,-10,2,28.203125,0.012837449088692665,-0.00016143557149916887,0.9938768744468689,0.01690475083887577,0.040771130472421646,-0.04380211979150772,-0.06716016680002213,-0.008570194244384766,14.863225936889648,0.0010985672706738114,0.7456191182136536,0.0026352351997047663,0.6398130655288696,-0.0015366679290309548,0.10580605268478394,0.9936930537223816,0.10581721365451813,1.0089999437332153,1,1588614,0,0.10631170868873596,0.0,1518612,0,0,0,0
1.7502956999960588,baseline,1604779364,1588623,400,4,8140,-98,-12,-7,4,28.125,0.011993925087153912,0.00020253160619176924,0.9935944676399231,-0.03621876239776611,-0.03243362531065941,0.023165952414274216,-0.06693854182958603,-0.008371889591217041,14.863167762756348,0.01167901698499918,0.6756864786148071,0.0028568555135279894,0.6400113701820374,0.008822161704301834,0.035675108432769775,0.9936635494232178,0.03674974665045738,1.0089999437332153,1,1588624,0,0.037071529775857925,0.0,1518623,0,0,0,0
1.760623999987729,baseline,1604789448,1588633,404,-2,8135,-85,-12,-10,3,28.125,0.01077487226575613,0.0003601546923164278,0.9934179186820984,-0.0061071207746863365,-0.0333566814661026,-0.06372730433940887,-0.06674559414386749,-0.008562266826629639,14.86274242401123,0.020772065967321396,0.621420681476593,0.003049806458875537,0.6398209929466248,0.01772226020693779,-0.01840031147003174,0.9934764504432678,0.02554701454937458,1.0080000162124634,1,1588634,0,0.024495050311088562,0.0,1518633,0,0,0,0
1.7703461999917636,baseline,1604799532,1588643,400,-6,8150,-68,-14,-8,4,28.125,0.01005588285624981,0.00015395920490846038,0.9943618774414062,-0.019938673824071884,0.019219258800148964,-0.0030309357680380344,-0.06672240793704987,-0.008274495601654053,14.862377166748047,0.01192806288599968,0.5801776647567749,0.0031077051535248756,0.6400840282440186,0.008820357732474804,-0.05990636348724365,0.994280993938446,0.060552217066287994,1.0080000162124634,1,1588644,0,0.06031272932887077,0.0,1518642,0,0,0,0
1.7805731999978889,baseline,1604809616,1588653,392,-4,8146,-85,-13,-11,4,28.0625,0.010682621039450169,0.0001957416534423828,0.9944418668746948,-0.0451330840587616,-0.018576160073280334,-0.055076245218515396,-0.0661754459142685,-0.008840739727020264,14.862074851989746,0.012836203910410404,0.6071171164512634,0.0036199570167809725,0.6395425200462341,0.009216247126460075,-0.0324254035949707,0.9944499135017395,0.033709730952978134,1.0080000162124634,1,1588654,0,0.03347425162792206,0.0,1518652,0,0,0,0
1.790227599994978,baseline,1604819699,1588663,388,8,8136,-107,-14,-9,1,28.03125,0.011802482418715954,-0.00016407699149567634,0.9941527247428894,0.020870301872491837,-0.0261689443141222,-0.04801133647561073,-0.06624322384595871,-0.009140431880950928,14.861485481262207,-0.022463103756308556,0.6761065125465393,0.0035208831541240215,0.6392261385917664,-0.025983987376093864,0.03688037395477295,0.9941619634628296,0.045114628970623016,1.0089999437332153,1,1588664,0,0.04540158063173294,0.0,1518662,0,0,0,0
1.8007623000012245,baseline,1604829783,1588673,400,5,8128,-88,-10,-6,4,28.125,0.010810092091560364,0.00012753953342325985,0.9936328530311584,-0.03783978521823883,-0.0914333164691925,0.023813433945178986,-0.06617452204227448,-0.010075688362121582,14.861273765563965,0.0073543027974665165,0.620463490486145,0.003620878094807267,0.6383075714111328,0.0037334247026592493,-0.017844080924987793,0.9936911463737488,0.018230460584163666,1.0089999437332153,1,1588674,0,0.01804596185684204,0.0,1518673,0,0,0,0
1.8105724999913946,baseline,1604839867,1588683,412,18,8149,-104,-9,-9,1,28.078125,0.011738584376871586,-0.0006798027898184955,0.9945667386054993,0.011803466826677322,-0.07876937091350555,-0.02882888913154602,-0.06613826006650925,-0.01051032543182373,14.86124038696289,-0.03916260227560997,0.6762140393257141,0.0036571412347257137,0.6378729343414307,-0.04281974211335182,0.03834110498428345,0.9946362376213074,0.057476695626974106,1.0080000162124634,1,1588685,0,0.04451609402894974,0.0,1518683,0,0,0,0
1.8204993999970611,baseline,1604849951,1588693,402,-7,8149,-96,-11,-11,2,28.140625,0.011836627498269081,0.000748680904507637,0.9943450689315796,0.011839251033961773,0.003794480115175247,-0.059235237538814545,-0.06608190387487411,-0.009995758533477783,14.860873222351074,0.04314020648598671,0.6820132732391357,0.003713492536917329,0.6384183764457703,0.04262832552194595,0.030283033847808838,0.9943612813949585,0.0522899255156517,1.0089999437332153,1,1588694,0,0.052519261837005615,0.0,1518692,0,0,0,0
1.8300674999918556,baseline,1604859026,1588702,392,-8,8149,-93,-16,-9,3,28.0625,0.011276915669441223,1.6977661289274693e-05,0.9939229488372803,-0.014512153342366219,-0.0013158246874809265,-0.013026713393628597,-0.06606180965900421,-0.010147154331207275,14.860612869262695,0.005287284031510353,0.6406432390213013,0.0037335881497710943,0.6382361054420471,0.0015536958817392588,0.0024071335792541504,0.99405837059021,0.002865006448701024,1.0089999437332153,1,1588703,0,0.0031525378581136465,0.0,1518701,0,0,0,0
1.8402991999901133,baseline,1604869108,1588712,384,-11,8151,-87,-14,-10,2,28.0,0.011070108972489834,0.00013695844972971827,0.9942865371704102,0.0074982428923249245,0.007062273100018501,-0.051135070621967316,-0.0660952478647232,-0.010041415691375732,14.860394477844238,0.00789223238825798,0.6415852904319763,0.0037001518066972494,0.6383418440818787,0.004192080348730087,0.0032434463500976562,0.9943488836288452,0.0053003281354904175,1.0080000162124634,1,1588713,0,0.01953244023025036,0.0,1518712,0,0,0,0
1.8503925999975763,baseline,1604879192,1588722,396,10,8138,-100,-9,-7,3,28.15625,0.011300722137093544,3.200664650648832e-05,0.9937461018562317,-0.01924922503530979,-0.13596175611019135,0.01553210150450468,-0.06574908643960953,-0.010457158088684082,14.86003303527832,0.0018453866941854358,0.6515304446220398,0.00404631020501256,0.6379261016845703,-0.0022009233944118023,0.013604342937469482,0.9938103556632996,0.013781227171421051,1.0089999437332153,1,1588724,0,0.025518910959362984,0.0,1518722,0,0,0,0
1.8601582999981474,baseline,1604889276,1588732,400,0,8157,-118,-14,-9,1,28.125,0.012425846420228481,7.918738447187934e-06,0.9943625926971436,0.018655335530638695,-0.00990899745374918,-0.03736916929483414,-0.06569110602140427,-0.010967016220092773,14.859903335571289,0.004844991490244865,0.7260451912879944,0.004078051075339317,0.6374366879463196,0.0007669404149055481,0.0886085033416748,0.9946783185005188,0.08861182630062103,1.0080000162124634,1,1588733,0,0.08899914473295212,0.0,1518731,0,0,0,0
1.8706289999972796,baseline,1604899360,1588742,396,9,8153,-98,-15,-10,3,28.109375,0.012979675084352493,-0.00012835263623856008,0.9947365522384644,-0.025132473558187485,0.024149734526872635,-0.0398348830640316,-0.06567412614822388,-0.010431170463562012,14.859681129455566,-0.007392976898699999,0.7475732564926147,0.00412127748131752,0.6379520893096924,-0.011514253914356232,0.10962116718292236,0.9948212504386902,0.11022421717643738,1.0089999437332153,1,1588744,0,0.10051461309194565,0.0,1518742,0,0,0,0
1.8803066999971634,baseline,1604909444,1588752,410,3,8136,-90,-13,-7,3,28.203125,0.011669418774545193,-0.0007904725498519838,0.9945570826530457,-0.04241008684039116,0.04099329188466072,0.01375665608793497,-0.06535706669092178,-0.00989067554473877,14.859374046325684,-0.033862341195344925,0.6605668663978577,0.004444013349711895,0.6385033130645752,-0.038306355476379395,0.02206355333328247,0.9944024085998535,0.04420607537031174,1.0080000162124634,1,1588753,0,0.044388867914676666,0.0,1518751,0,0,0,0
1.890490999998292,baseline,1604919526,1588762,388,3,8152,-100,-15,-9,2,28.03125,0.011747638694941998,-7.748090865788981e-06,0.994127631187439,0.0021503064781427383,0.004369871690869331,-0.008457821793854237,-0.06552968919277191,-0.009618103504180908,14.859521865844727,0.0018559405580163002,0.6678568124771118,0.004265710711479187,0.6387651562690735,-0.002409770153462887,0.02909165620803833,0.9941778779029846,0.029191290959715843,1.0080000162124634,1,1588763,0,0.029541296884417534,0.0,1518761,0,0,0,0
1.9004706999985501,baseline,1604929609,1588772,392,0,8142,-100,-14,-12,2,28.0625,0.010950863361358643,0.0005117258406244218,0.993324339389801,0.01672157645225525,-0.009428437799215317,-0.0743856281042099,-0.06558160483837128,-0.009871184825897217,14.859031677246094,0.029290486127138138,0.6328152418136597,0.004221067298203707,0.6385120749473572,0.02506941929459572,-0.00569683313369751,0.993785560131073,0.025708552449941635,1.0089999437332153,1,1588773,0,0.0256673451513052,0.0,1518771,0,0,0,0
1.910162100000889,baseline,1604939693,1588782,392,3,8138,-83,-10,-10,2,28.0625,0.011173832230269909,0.0008261488983407617,0.9937887191772461,-0.007158320397138596,-0.09828627109527588,-0.07641197741031647,-0.06531431525945663,-0.010439276695251465,14.85842227935791,0.047630686312913895,0.6441875100135803,0.004481083247810602,0.6379439830780029,0.03335151448845863,-0.002124309539794922,0.9939640164375305,0.03341909870505333,1.0089999437332153,1,1588783,0,0.03343405947089195,0.0,1518781,0,0,0,0
1.920200799999293,baseline,1604948769,1588792,384,12,8153,-94,-10,-10,2,28.0,0.011783105321228504,0.00026621503639034927,0.994036853313446,0.011579885147511959,-0.08432139456272125,-0.03155754879117012,-0.06531490385532379,-0.011325836181640625,14.858260154724121,0.015344500541687012,0.6791403889656067,0.004480497445911169,0.6370574235916138,0.010864002630114555,0.04208296537399292,0.9942995309829712,0.05262813717126846,1.0089999437332153,1,1588793,0,0.052934180945158005,0.0,1518791,0,0,0,0
1.9304147999937413,baseline,1604959861,1588802,408,-11,8150,-92,-13,-9,1,28.1875,0.011130793951451778,0.00039319481584243476,0.9939386248588562,0.024763820692896843,-0.002491605933755636,-0.016699736937880516,-0.06543523073196411,-0.011354565620422363,14.858268737792969,0.025759831070899963,0.6557245254516602,0.004350557923316956,0.6370291113853455,0.021409273147583008,0.018695414066314697,0.9942875504493713,0.02842315100133419,1.0089999437332153,1,1588803,0,0.02863835170865059,0.0,1518801,0,0,0,0
1.9405317999917315,baseline,1604968937,1588812,392,0,8154,-90,-15,-9,5,28.0625,0.011331952176988125,0.0006268640281632543,0.9940088987350464,-0.03340674936771393,0.032700370997190475,-0.02390107698738575,-0.06531012803316116,-0.011122524738311768,14.857994079589844,0.036133136600255966,0.6531579494476318,0.004523805342614651,0.6373040080070496,0.01917777955532074,0.01590120792388916,0.9942880868911743,0.024912560358643532,1.0080000162124634,1,1588813,0,0.025184135884046555,0.0,1518811,0,0,0,0
1.9504401999874972,baseline,1604979020,1588822,398,6,8149,-93,-10,-8,2,28.109375,0.011095640249550343,-0.0002167922502849251,0.9942144751548767,-0.009188568219542503,-0.03357730060815811,0.009412487037479877,-0.06503407657146454,-0.011279284954071045,14.857873916625977,-0.012493562884628773,0.6394062638282776,0.0047613224014639854,0.6371039748191833,-0.017254885286092758,0.0036487579345703125,0.9942068457603455,0.021152015775442123,1.0080000162124634,1,1588823,0,0.021225154399871826,0.0,1518821,0,0,0,0
1.9602661999961128,baseline,1604989104,1588831,416,-1,8160,-95,-14,-8,2,28.25,0.011036748066544533,5.732174759032205e-05,0.9945446848869324,-0.00790682528167963,-0.016968490555882454,-0.01497503649443388,-0.06513600051403046,-0.011601865291595459,14.857566833496094,0.0033023094292730093,0.6358016133308411,0.004659397527575493,0.6367813944816589,-0.0013570880983024836,-0.000979781150817871,0.9946058988571167,0.0016738157719373703,1.0080000162124634,1,1588832,0,0.010809744708240032,0.0,1518831,0,0,0,0
1.9705106999899726,baseline,1604999188,1588841,398,-11,8135,-100,-15,-10,2,28.109375,0.01088495459407568,0.0004798035370185971,0.9935094714164734,-0.013166889548301697,-0.014616820961236954,-0.03007497452199459,-0.06482654809951782,-0.01185387372970581,14.857458114624023,0.02767031081020832,0.6277111172676086,0.004968853667378426,0.6365293860435486,0.022701457142829895,-0.008818268775939941,0.9935692548751831,0.021679840981960297,1.0069999694824219,1,1588843,0,0.021713213995099068,0.0,1518841,0,0,0,0
1.980422599997837,baseline,1605009271,1588851,392,11,8150,-95,-14,-9,1,28.078125,0.010994684882462025,-0.0002358531201025471,0.9942631721496582,0.0211886428296566,-0.046536341309547424,-0.005876308307051659,-0.06491389870643616,-0.012378096580505371,14.857486724853516,-0.013591359369456768,0.6335579752922058,0.0048815044574439526,0.636005163192749,-0.018472863361239433,-0.002447187900543213,0.9943239688873291,0.0186342541128397,1.0089999437332153,1,1588852,0,0.012702029198408127,0.0,1518851,0,0,0,0
1.9902617999905488,baseline,1605019354,1588861,392,7,8143,-91,-15,-9,4,28.0625,0.011957806535065174,-0.00040921743493527174,0.9944136142730713,-0.028013691306114197,-0.0024261344224214554,-0.031372662633657455,-0.0649498999118805,-0.01233983039855957,14.85720157623291,-0.019840287044644356,0.6801273226737976,0.004868529736995697,0.6360434293746948,-0.024708816781640053,0.04408389329910278,0.994401752948761,0.050536274909973145,1.0089999437332153,1,1588862,0,0.050856564193964005,0.0,1518860,0,0,0,0
2.0004104999970878,baseline,1605029438,1588871,398,5,8143,-84,-14,-8,2,28.109375,0.012005513533949852,-0.0002863708359654993,0.9939504861831665,0.005420181434601545,0.00519956648349762,-0.0021865307353436947,-0.0649271160364151,-0.011625826358795166,14.85698127746582,-0.01723763532936573,0.6849334239959717,0.004868284333497286,0.6367574334144592,-0.02210591919720173,0.04817599058151245,0.9940215349197388,0.0530056394636631,1.0089999437332153,1,1588872,0,0.05335516482591629,0.0,1518870,0,0,0,0
2.010303599992767,baseline,1605039522,1588881,426,2,8134,-80,-14,-8,3,28.328125,0.010174278169870377,0.00034189564757980406,0.9944145083427429,-0.005889457184821367,-0.00038870563730597496,-0.004709257744252682,-0.06497664749622345,-0.011425375938415527,14.8569917678833,0.0210415069013834,0.5692030787467957,0.004827301949262619,0.6369469165802002,0.01621420495212078,-0.06774383783340454,0.9942459464073181,0.06965721398591995,1.0089999437332153,1,1588882,0,0.06941364705562592,0.0,1518880,0,0,0,0
2.0203060999920126,baseline,1605049606,1588891,420,-29,8142,-78,-13,-11,-1,28.28125,0.009395673871040344,0.0010524815879762173,0.994335412979126,0.04987122118473053,0.0218071136623621,-0.059283457696437836,-0.06489335000514984,-0.011738240718841553,14.856781959533691,0.07893829792737961,0.5482547879219055,0.0048911995254457,0.6365869641304016,0.07404709607362747,-0.0883321762084961,0.9941186904907227,0.1152629405260086,1.0089999437332153,1,1588892,0,0.11513550579547882,0.0,1518890,0,0,0,0
2.0304650999896694,baseline,1605059689,1588901,396,1,8131,-75,-11,-9,2,28.09375,0.01085205189883709,0.00018101438763551414,0.9934873580932617,-0.010614462196826935,-0.07067269831895828,-0.03832238167524338,-0.06475026905536652,-0.012331187725067139,14.856325149536133,-0.0023814758751541376,0.6180601716041565,0.005024110898375511,0.6359984874725342,-0.007405586540699005,-0.017938315868377686,0.9936487674713135,0.01940685138106346,1.0080000162124634,1,1588902,0,0.019191253930330276,0.0,1518900,0,0,0,0
2.0403896999923745,baseline,1605069773,1588911,408,10,8150,-100,-11,-9,2,28.1875,0.011782743036746979,-0.0004047524416819215,0.9939835071563721,0.008725129999220371,-0.016153480857610703,-0.030895477160811424,-0.06508054584264755,-0.012230277061462402,14.85601806640625,-0.028553923591971397,0.679577112197876,0.0046883332543075085,0.6361258625984192,-0.033242255449295044,0.04345124959945679,0.9942139983177185,0.054708853363990784,1.0080000162124634,1,1588912,0,0.05498342961072922,0.0,1518910,0,0,0,0
2.050783099999535,baseline,1605079857,1588921,396,-3,8149,-94,-12,-10,2,28.09375,0.011560636572539806,0.0006495491834357381,0.9944226741790771,0.0032956383656710386,-0.05423523113131523,-0.0262753963470459,-0.06520979106426239,-0.012706756591796875,14.855762481689453,0.02814815379679203,0.6531242728233337,0.004601803608238697,0.6356765031814575,0.02354634925723076,0.01744776964187622,0.9943071603775024,0.029306232929229736,1.0080000162124634,1,1588922,0,0.029507169499993324,0.0,1518920,0,0,0,0
2.0605362999922363,baseline,1605089941,1588931,386,20,8142,-94,-11,-8,2,28.015625,0.011176081374287605,-0.00024546077474951744,0.993283212184906,0.008461075834929943,-0.05585665628314018,-0.009761657565832138,-0.06513454020023346,-0.012982428073883057,14.855635643005371,-0.021960407495498657,0.6461457014083862,0.004638015292584896,0.63536137342453,-0.026598423719406128,0.010784327983856201,0.9935211539268494,0.028701530769467354,1.0080000162124634,1,1588932,0,0.028842173516750336,0.0,1518930,0,0,0,0
2.070388499996625,baseline,1605099016,1588940,404,0,8139,-80,-17,-9,3,27.953125,0.010324106551706791,1.0850908438442275e-05,0.9940384030342102,-0.003055090084671974,0.05242890864610672,-0.012598860077559948,-0.06532197445631027,-0.013090968132019043,14.855378150939941,0.0006254399195313454,0.5950539112091064,0.004473427310585976,0.6352922916412354,-0.0038479873910546303,-0.040238380432128906,0.9940919876098633,0.033205270767211914,1.0080000162124634,1,1588942,0,0.03286714479327202,0.0,1518940,0,0,0,0
2.0804497999924934,baseline,1605109099,1588950,392,-3,8154,-103,-13,-7,2,28.078125,0.011919312179088593,-4.814095882466063e-05,0.9946908950805664,-0.0045893932692706585,0.0010299021378159523,0.041793182492256165,-0.06528842449188232,-0.01284879446029663,14.855504035949707,-0.0027729959692806005,0.6865385174751282,0.004506976809352636,0.6355344653129578,-0.007279972545802593,0.05100405216217041,0.9947623014450073,0.05116482824087143,1.0080000162124634,1,1588952,0,0.05152122303843498,0.0,1518950,0,0,0,0
2.0901597999909427,baseline,1605119182,1588960,396,-7,8136,-86,-13,-8,0,28.09375,0.010899540036916733,0.000498326204251498,0.9936754107475281,0.026456309482455254,-0.06500799208879471,0.008855129592120647,-0.0653563067317009,-0.013142228126525879,14.85549259185791,0.0275283083319664,0.6371185183525085,0.004439090844243765,0.6352410316467285,0.023089217022061348,0.0018774867057800293,0.9936365485191345,0.023165423423051834,1.0089999437332153,1,1588961,0,0.023179801180958748,0.0,1518959,0,0,0,0
2.100231199990958,baseline,1605129266,1588970,390,-4,8146,-97,-15,-9,2,28.046875,0.011361757293343544,0.0005452314508147538,0.9939604997634888,0.006358879618346691,-0.0034468062222003937,-0.030532756820321083,-0.06539913266897202,-0.013412117958068848,14.85530948638916,0.01639462448656559,0.6657424569129944,0.004396267235279083,0.6349711418151855,0.011998357251286507,0.030771315097808838,0.9943853616714478,0.033027783036231995,1.0089999437332153,1,1588971,0,0.03336433321237564,0.0,1518969,0,0,0,0
2.1102539999992587,baseline,1605139350,1588980,396,7,8139,-100,-11,-8,2,28.09375,0.011358858086168766,-0.00032765656942501664,0.9944207072257996,0.00804597046226263,-0.09955906867980957,-0.008979570120573044,-0.06539244204759598,-0.013846516609191895,14.855193138122559,-0.01365546602755785,0.6611658334732056,0.004402961116284132,0.6345367431640625,-0.018058426678180695,0.026629090309143066,0.9943457245826721,0.03217476233839989,1.0089999437332153,1,1588981,0,0.03241610899567604,0.0,1518979,0,0,0,0
2.120470900001237,baseline,1605149434,1588990,396,-6,8150,-93,-13,-9,3,28.09375,0.011853458359837532,0.0002521528513170779,0.9948124289512634,-0.007241928018629551,-0.014725500717759132,0.0027527939528226852,-0.06555993854999542,-0.013968288898468018,14.855278968811035,0.014522631652653217,0.6780874133110046,0.004235464613884687,0.6344149708747864,0.010287167504429817,0.04367244243621826,0.9948821067810059,0.04486767202615738,1.0089999437332153,1,1588991,0,0.045206788927316666,0.0,1518989,0,0,0,0
2.1302467999921646,baseline,1605159518,1589000,410,2,8140,-96,-13,-9,4,28.203125,0.01157552283257246,0.000132619752548635,0.9942715167999268,-0.015526245348155499,-0.017810193821787834,-0.01887432113289833,-0.06560414284467697,-0.013651907444000244,14.855265617370605,0.001968161901459098,0.659585177898407,0.004227617755532265,0.6347143054008484,-0.002259455854073167,0.024870872497558594,0.9940649271011353,0.024973295629024506,1.0089999437332153,1,1589001,0,0.025276703760027885,0.0,1518999,0,0,0,0
2.1405900999961887,baseline,1605169602,1589010,400,1,8137,-111,-15,-10,4,28.125,0.011805200017988682,0.00011167898628627881,0.9940075278282166,-0.02313901297748089,0.0061026811599731445,-0.028346680104732513,-0.06533531099557877,-0.013911604881286621,14.855087280273438,0.008766078390181065,0.6831361651420593,0.004460091702640057,0.6344716548919678,0.004305986687541008,0.04866451025009155,0.9938669204711914,0.04885464161634445,1.0080000162124634,1,1589011,0,0.04921795800328255,0.0,1519009,0,0,0,0
2.150094299999182,baseline,1605178678,1589020,406,5,8140,-97,-15,-10,2,28.171875,0.011576651595532894,-0.00022975672618485987,0.993621826171875,0.0026947823353111744,0.03129614144563675,-0.034114014357328415,-0.06519430130720139,-0.014039039611816406,14.854927062988281,-0.013248592615127563,0.6675208210945129,0.0046010976657271385,0.634344220161438,-0.017849691212177277,0.03317660093307495,0.9936892986297607,0.04533922299742699,1.0080000162124634,1,1589021,0,0.04568086192011833,0.0,1519019,0,0,0,0
2.160501199992723,baseline,1605189769,1589030,400,9,8140,-97,-15,-10,4,28.125,0.011505017057061195,-0.00043780822306871414,0.9935385584831238,-0.028510523959994316,-0.0016184691339731216,-0.05311146005988121,-0.0653521865606308,-0.013811767101287842,14.854522705078125,-0.02347365766763687,0.6642076969146729,0.004454364534467459,0.6345779299736023,-0.027928022667765617,0.029629766941070557,0.993720293045044,0.040717288851737976,1.0080000162124634,1,1589031,0,0.04096482694149017,0.0,1519029,0,0,0,0
2.170537300000433,baseline,1605199853,1589040,404,3,8129,-87,-13,-9,1,28.15625,0.01228790171444416,0.00032159272814169526,0.9937810301780701,0.037912506610155106,-0.02444535121321678,-0.015355636365711689,-0.06555235385894775,-0.013978004455566406,14.854240417480469,0.02006504125893116,0.6797615885734558,0.004231978673487902,0.6344144940376282,0.015833063051104546,0.04534709453582764,0.9938693642616272,0.04803171008825302,1.0080000162124634,1,1589041,0,0.048359356820583344,0.0,1519039,0,0,0,0
2.1807530999940354,baseline,1605209937,1589050,404,-15,8142,-110,-12,-10,2,28.15625,0.012870554812252522,0.0004363460175227374,0.9941778182983398,0.016932914033532143,-0.05514834448695183,-0.04929177835583687,-0.06577404588460922,-0.013943374156951904,14.853861808776855,0.03677903488278389,0.744556188583374,0.004032646305859089,0.6344408392906189,0.032746389508247375,0.11011534929275513,0.9942754507064819,0.11488131433725357,1.0080000162124634,1,1589051,0,0.11525500565767288,0.0,1519049,0,0,0,0
2.190425699998741,baseline,1605219011,1589059,386,2,8142,-116,-15,-9,2,28.25,0.013307591900229454,-9.878542914520949e-05,0.9940057396888733,0.008237844333052635,0.02611347660422325,-0.03544377163052559,-0.06579025089740753,-0.013649463653564453,14.853453636169434,-0.005694120191037655,0.7670210003852844,0.004005150403827429,0.6347337961196899,-0.009699270129203796,0.13228720426559448,0.9940947890281677,0.12321408092975616,1.0089999437332153,1,1589061,0,0.12366346269845963,0.0,1519059,0,0,0,0
2.200655499997083,baseline,1605230103,1589070,394,12,8142,-89,-11,-6,1,28.078125,0.011888756416738033,-0.0007413362618535757,0.9947788119316101,-0.003227708861231804,-0.07367335259914398,0.007368383929133415,-0.06585445255041122,-0.01338052749633789,14.853130340576172,-0.041521426290273666,0.6745638251304626,0.003906527999788523,0.6349659562110901,-0.04542795568704605,0.03959786891937256,0.9943788647651672,0.060263507068157196,1.0080000162124634,1,1589071,0,0.06050526723265648,0.0,1519069,0,0,0,0
2.2101259999908507,baseline,1605239178,1589079,396,4,8126,-101,-12,-9,0,28.09375,0.012061724439263344,-0.0001343999756500125,0.9935542345046997,0.027333199977874756,-0.051918111741542816,-0.04173760116100311,-0.06605928391218185,-0.013421356678009033,14.85278034210205,-0.0009389986516907811,0.6957774758338928,0.0037361131981015205,0.6349619030952454,-0.00467511173337698,0.06081557273864746,0.9935849905014038,0.06099500507116318,1.0069999694824219,1,1589080,0,0.06132400408387184,0.0,1519078,0,0,0,0
2.2203528999962145,baseline,1605249261,1589089,400,-4,8141,-96,-15,-8,3,28.078125,0.011821969412267208,0.00030172610422596335,0.9937666654586792,-0.0035966867581009865,-0.0009432830847799778,-0.00207494106143713,-0.06616126000881195,-0.01345372200012207,14.852559089660645,0.017396068200469017,0.6815653443336487,0.003634136402979493,0.6349295377731323,0.013761932030320168,0.04663580656051636,0.9938369989395142,0.048623956739902496,1.0080000162124634,1,1589090,0,0.049968987703323364,0.0,1519089,0,0,0,0
2.230376499996055,baseline,1605259345,1589099,408,0,8131,-79,-12,-10,1,28.1875,0.010927052237093449,0.0005378384375944734,0.9933897256851196,0.043952200561761856,-0.03229258209466934,-0.004309639800339937,-0.06620633602142334,-0.013656795024871826,14.852639198303223,0.03838413581252098,0.6341062188148499,0.0035890666767954826,0.6347264647483826,0.034795068204402924,-0.0006202459335327148,0.9934507608413696,0.03480059653520584,1.0080000162124634,1,1589100,0,0.03479055315256119,0.0,1519098,0,0,0,0
2.2402632999874186,baseline,1605269428,1589109,400,0,8156,-92,-13,-10,2,28.125,0.011820570565760136,0.000505700649227947,0.9944897294044495,0.009218545630574226,-0.009768854826688766,-0.03879493474960327,-0.06626928597688675,-0.013678908348083496,14.85247802734375,0.021163402125239372,0.6687614917755127,0.003526114160194993,0.6347043514251709,0.017637288197875023,0.0340571403503418,0.9947732090950012,0.03835313394665718,1.0080000162124634,1,1589110,0,0.03864914923906326,0.0,1519108,0,0,0,0
2.25066419999348,baseline,1605279511,1589119,396,-2,8144,-96,-18,-9,3,28.09375,0.011920904740691185,7.975169864948839e-05,0.9942190051078796,-0.011658941395580769,0.06910053640604019,-0.005449804477393627,-0.0663052499294281,-0.013169944286346436,14.85243034362793,0.008329947479069233,0.6862242817878723,0.0034901509061455727,0.635213315486908,0.00483979657292366,0.051010966300964355,0.9942903518676758,0.051240045577287674,1.0089999437332153,1,1589120,0,0.0516773983836174,0.0,1519119,0,0,0,0
2.260161300000618,baseline,1605289593,1589129,396,7,8132,-88,-10,-8,3,28.09375,0.011210642755031586,0.00013668093015439808,0.9931420087814331,-0.004784643650054932,-0.05257357656955719,0.013443773612380028,-0.0663084089756012,-0.012948215007781982,14.852490425109863,0.00788531731814146,0.648953378200531,0.00350327230989933,0.6353785991668701,-0.008036497980356216,0.013574779033660889,0.9934996366500854,0.015775294974446297,1.0089999437332153,1,1589130,0,0.015994960442185402,0.0,1519128,0,0,0,0
2.2703831999970134,baseline,1605299677,1589139,402,-18,8136,-84,-13,-9,1,28.140625,0.011124798096716404,0.0003557734307833016,0.9936097860336304,0.025466416031122208,-0.0395994558930397,-0.015427260659635067,-0.0663127526640892,-0.013286709785461426,14.852319717407227,0.036236006766557693,0.6345503330230713,0.003467908129096031,0.6350829005241394,0.03276810050010681,-0.0005325675010681152,0.9937938451766968,0.032772429287433624,1.0080000162124634,1,1589140,0,0.032773520797491074,0.0,1519138,0,0,0,0
2.280578099991544,baseline,1605309761,1589149,392,-2,8146,-92,-14,-7,1,28.0625,0.01158235128968954,0.00034486487857066095,0.9941413998603821,0.012644731439650059,0.015305050648748875,0.009315317496657372,-0.06635299324989319,-0.013397753238677979,14.852103233337402,0.020071646198630333,0.6620789766311646,0.0034284444991499186,0.6349918246269226,0.016643201932311058,0.027087152004241943,0.9941689968109131,0.03179166465997696,1.0080000162124634,1,1589150,0,0.032073505222797394,0.0,1519148,0,0,0,0
2.290272599988384,baseline,1605318837,1589159,428,2,8139,-104,-13,-10,2,28.34375,0.01238001324236393,0.0004424551734700799,0.9938881397247314,0.0013890252448618412,0.010491244494915009,-0.006941178813576698,-0.06633778661489487,-0.013216614723205566,14.852094650268555,0.025506706908345222,0.7136474847793579,0.003457613755017519,0.6351666450500488,0.02204909361898899,0.07574480772018433,0.9939660429954529,0.07839725911617279,1.0080000162124634,1,1589160,0,0.07878711074590683,0.0,1519158,0,0,0,0
2.3006498999893665,baseline,1605329929,1589169,390,3,8139,-111,-15,-9,4,28.046875,0.012255202978849411,0.00022754707606509328,0.9941170811653137,-0.01994480937719345,0.003586770035326481,-0.046588655561208725,-0.06619956344366074,-0.01297062635421753,14.851542472839355,0.011035904288291931,0.7115094065666199,0.003629396902397275,0.6354973912239075,0.0074065076187253,0.0760120153427124,0.9940813183784485,0.07637200504541397,1.0080000162124634,1,1589170,0,0.07681678980588913,0.0,1519168,0,0,0,0
2.310580499994103,baseline,1605339001,1589179,414,3,8140,-97,-12,-9,2,28.234375,0.01216592825949192,0.00011778444604715332,0.9939769506454468,0.013404023833572865,-0.043852075934410095,-0.015393823385238647,-0.06617964804172516,-0.012619256973266602,14.851250648498535,0.006789444945752621,0.7012451887130737,0.003615749068558216,0.6357503533363342,0.004351399838924408,0.06601619720458984,0.9938451647758484,0.0661594495177269,1.0089999437332153,1,1589180,0,0.06649602949619293,0.0,1519178,0,0,0,0
2.3203339999890886,baseline,1605349083,1589188,392,-4,8151,-101,-17,-9,0,28.234375,0.012058897875249386,0.0005365381366573274,0.9939892292022705,0.03245667368173599,0.013279184699058533,-0.018756050616502762,-0.0661965161561966,-0.012497663497924805,14.850930213928223,0.03092726320028305,0.6950678825378418,0.003598880022764206,0.6358855962753296,0.027328383177518845,0.05918228626251221,0.9940625429153442,0.06518729776144028,1.0080000162124634,1,1589190,0,0.0735812708735466,0.0,1519188,0,0,0,0
2.3305143999896245,baseline,1605359167,1589198,400,-7,8143,-97,-12,-8,2,28.125,0.012084460817277431,0.0003408612101338804,0.9941036701202393,-0.006246536038815975,-0.01437696348875761,-0.0015951907262206078,-0.06613675504922867,-0.012345671653747559,14.85069751739502,0.019645746797323227,0.696461021900177,0.003658647183328867,0.6360375881195068,0.015987100079655647,0.060423433780670166,0.9941771626472473,0.05607379227876663,1.0080000162124634,1,1589200,0,0.056378766894340515,0.0,1519198,0,0,0,0
2.340188699992723,baseline,1605369251,1589208,406,2,8142,-118,-16,-8,4,28.171875,0.012293796055018902,-0.0001667597534833476,0.9944193363189697,-0.048025477677583694,0.015364967286586761,0.011540425941348076,-0.06586825847625732,-0.012510061264038086,14.850502967834473,-0.01254764199256897,0.7243110537528992,0.003927137702703476,0.6358731985092163,-0.016474779695272446,0.08843785524368286,0.9943965673446655,0.0899592861533165,1.0080000162124634,1,1589209,0,0.09038078039884567,0.0,1519207,0,0,0,0
2.350470799996401,baseline,1605379335,1589218,384,4,8142,-95,-14,-9,3,28.109375,0.011420680209994316,0.00011076290684286505,0.9941497445106506,-0.024026408791542053,0.015056509524583817,-0.009404584765434265,-0.06582657992839813,-0.012266933917999268,14.850561141967773,0.0063835927285254,0.6581785082817078,0.003968820441514254,0.6361163258552551,0.0024147722870111465,0.022062182426452637,0.9942153096199036,0.022193940356373787,1.0080000162124634,1,1589219,0,0.022423801943659782,0.0,1519218,0,0,0,0
2.3606012999953236,baseline,1605389419,1589228,396,-6,8134,-91,-9,-9,1,28.046875,0.011817310005426407,0.00017966244195122272,0.9934521317481995,0.01566721871495247,-0.07723543047904968,-0.02820376306772232,-0.0659666359424591,-0.012434422969818115,14.8505220413208,0.01036174688488245,0.6815125346183777,0.003828762797638774,0.6359488368034363,0.0065329838544130325,0.045563697814941406,0.9935224056243896,0.04602966830134392,1.0080000162124634,1,1589229,0,0.0529266893863678,0.0,1519228,0,0,0,0
